time,gFx,gFy,gFz,ax,ay,az,wx,wy,wz,Latitude,Longitude,Speed (m/s)
0.064854,0.0678,0.9369,0.2674,0,0,0,0,0,0,0,0,0
0.065143,0.0274,0.9194,0.2708,0,0,0,0,0,0,49.27255511,-122.9764584,0
0.065403,0.0274,0.9194,0.2708,0,0,0,0,0,0,49.27255511,-122.9764584,0
0.082409,0.026,0.923,0.2755,0,0,0,0,0,0,49.27255511,-122.9764584,0
0.091194,0.0636,0.9294,0.2736,0,0,0,0,0,0,49.27255511,-122.9764584,0
0.092196,0.0636,0.9294,0.2736,0,0,0,0,0,0,49.27255511,-122.9764584,0
0.114389,0.0636,0.9294,0.2736,0,0,0,-0.0211,0.0383,-0.0484,49.27255511,-122.9764584,0
0.115439,0.0428,0.927,0.2577,0,0,0,-0.0211,0.0383,-0.0484,49.27255511,-122.9764584,0
0.134626,0.0634,0.9253,0.2552,0,0,0,-0.0211,0.0383,-0.0484,49.27255511,-122.9764584,0
0.150063,0.0634,0.9433,0.2689,0,0,0,-0.0211,0.0383,-0.0484,49.27255511,-122.9764584,0
0.171581,0.0634,0.9433,0.2689,0,0,0,-0.0211,0.0383,-0.0484,49.27255511,-122.9764584,0
0.173873,0.0194,0.9319,0.2559,0,0,0,-0.0211,0.0383,-0.0484,49.27255511,-122.9764584,0
0.182897,0.0194,0.9319,0.2559,0,0,0,-0.0397,0.0987,-0.0728,49.27255511,-122.9764584,0
0.203001,0.0216,0.9303,0.2546,0,0,0,-0.0397,0.0987,-0.0728,49.27255511,-122.9764584,0
0.205813,-0.0009,0.9189,0.2485,0,0,0,-0.0397,0.0987,-0.0728,49.27255511,-122.9764584,0
0.207757,-0.0009,0.9189,0.2485,0,0,0,-0.0397,0.0987,-0.0728,49.27255511,-122.9764584,0
0.251923,-0.0009,0.9189,0.2485,0,0,0,-0.0959,0.1478,-0.0289,49.27255511,-122.9764584,0
0.255124,-0.0009,0.9189,0.2485,0,0,0,-0.0959,0.1478,-0.0289,49.27255511,-122.9764584,0
0.257909,-0.0089,0.9092,0.2297,0,0,0,-0.0959,0.1478,-0.0289,49.27255511,-122.9764584,0
0.260374,0.021,0.9359,0.2662,0,0,0,-0.0959,0.1478,-0.0289,49.27255511,-122.9764584,0
0.268501,0.0231,0.935,0.2685,0,0,0,-0.0959,0.1478,-0.0289,49.27255511,-122.9764584,0
0.271362,0.0231,0.935,0.2685,0,0,0,-0.0959,0.1478,-0.0289,49.27255511,-122.9764584,0
0.273739,0.0231,0.935,0.2685,-0.1692,0.0055,-0.0658,-0.0959,0.1478,-0.0289,49.27255511,-122.9764584,0
0.276139,0.0231,0.935,0.2685,-0.1692,0.0055,-0.0658,-0.0959,0.1478,-0.0289,49.27255511,-122.9764584,0
0.282435,0.0061,0.9419,0.2485,-0.1692,0.0055,-0.0658,-0.0959,0.1478,-0.0289,49.27255511,-122.9764584,0
0.310761,0.0061,0.9419,0.2485,-0.1692,0.0055,-0.0658,-0.0959,0.1478,-0.0289,49.27255511,-122.9764584,0
0.314011,-0.0181,0.9182,0.2809,-0.1692,0.0055,-0.0658,-0.0959,0.1478,-0.0289,49.27255511,-122.9764584,0
0.32029,-0.0181,0.9182,0.2809,-0.1692,0.0055,-0.0658,-0.1523,0.1781,0.0327,49.27255511,-122.9764584,0
0.336705,-0.0479,0.8922,0.313,-0.1692,0.0055,-0.0658,-0.1523,0.1781,0.0327,49.27255511,-122.9764584,0
0.339335,-0.033,0.8967,0.3473,-0.1692,0.0055,-0.0658,-0.1523,0.1781,0.0327,49.27255511,-122.9764584,0
0.340945,-0.033,0.8967,0.3473,-0.1357,0.0102,-0.1034,-0.1523,0.1781,0.0327,49.27255511,-122.9764584,0
0.371011,-0.033,0.8967,0.3473,-0.1357,0.0102,-0.1034,-0.1523,0.1781,0.0327,49.27255511,-122.9764584,0
0.373123,-0.0068,0.9058,0.3215,-0.1357,0.0102,-0.1034,-0.1523,0.1781,0.0327,49.27255511,-122.9764584,0
0.385948,-0.0484,0.9135,0.2567,-0.1357,0.0102,-0.1034,-0.1523,0.1781,0.0327,49.27255511,-122.9764584,0
0.388327,-0.0484,0.9135,0.2567,-0.1357,0.0102,-0.1034,-0.1823,0.06,0.1275,49.27255511,-122.9764584,0
0.405744,0.014,0.9147,0.2844,-0.1357,0.0102,-0.1034,-0.1823,0.06,0.1275,49.27255511,-122.9764584,0
0.40788,0.014,0.9147,0.2844,-0.4137,-0.1151,0.2189,-0.1823,0.06,0.1275,49.27255511,-122.9764584,0
0.417787,0.0401,0.9138,0.3198,-0.4137,-0.1151,0.2189,-0.1823,0.06,0.1275,49.27255511,-122.9764584,0
0.449771,0.0772,0.9313,0.3342,-0.4137,-0.1151,0.2189,-0.1823,0.06,0.1275,49.27255511,-122.9764584,0
0.453916,0.0772,0.9313,0.3342,-0.4137,-0.1151,0.2189,-0.1823,0.06,0.1275,49.27255511,-122.9764584,0
0.456799,0.0772,0.9313,0.3342,-0.4137,-0.1151,0.2189,-0.1823,0.06,0.1275,49.27255511,-122.9764584,0
0.459845,0.0772,0.9313,0.3342,-0.4137,-0.1151,0.2189,-0.2401,0.0389,0.1779,49.27255511,-122.9764584,0
0.4679,-0.0222,0.9545,0.2617,-0.4137,-0.1151,0.2189,-0.2401,0.0389,0.1779,49.27255511,-122.9764584,0
0.472587,0.0249,0.8354,0.2763,-0.4137,-0.1151,0.2189,-0.2401,0.0389,0.1779,49.27255511,-122.9764584,0
0.475517,0.0249,0.8354,0.2763,-0.2299,-0.0371,-0.0453,-0.2401,0.0389,0.1779,49.27255511,-122.9764584,0
0.510083,0.0575,0.8568,0.3748,-0.2299,-0.0371,-0.0453,-0.2401,0.0389,0.1779,49.27255511,-122.9764584,0
0.512779,0.0575,0.8568,0.3748,-0.2299,-0.0371,-0.0453,-0.2401,0.0389,0.1779,49.27255511,-122.9764584,0
0.520745,0.0575,0.8568,0.3748,-0.2299,-0.0371,-0.0453,-0.2934,-0.0009,0.2178,49.27255511,-122.9764584,0
0.523211,0.0608,0.9918,0.2966,-0.2299,-0.0371,-0.0453,-0.2934,-0.0009,0.2178,49.27255511,-122.9764584,0
0.541584,0.2009,0.9489,0.3825,-0.2299,-0.0371,-0.0453,-0.2934,-0.0009,0.2178,49.27255511,-122.9764584,0
0.543875,0.2009,0.9489,0.3825,-0.0071,-0.009,-0.1004,-0.2934,-0.0009,0.2178,49.27255511,-122.9764584,0
0.570835,0.1,0.8862,0.3426,-0.0071,-0.009,-0.1004,-0.2934,-0.0009,0.2178,49.27255511,-122.9764584,0
0.573071,-0.0354,0.8502,0.3863,-0.0071,-0.009,-0.1004,-0.2934,-0.0009,0.2178,49.27255511,-122.9764584,0
0.57498,-0.0354,0.8502,0.3863,-0.0071,-0.009,-0.1004,-0.2934,-0.0009,0.2178,49.27255511,-122.9764584,0
0.589132,-0.0354,0.8502,0.3863,-0.0071,-0.009,-0.1004,-0.3263,0.2978,0.0786,49.27255511,-122.9764584,0
0.609451,-0.1275,0.8708,0.3008,-0.0071,-0.009,-0.1004,-0.3263,0.2978,0.0786,49.27255511,-122.9764584,0
0.61261,0.029,0.8812,0.4417,-0.0071,-0.009,-0.1004,-0.3263,0.2978,0.0786,49.27255511,-122.9764584,0
0.615143,0.029,0.8812,0.4417,0.588,0.2135,0.1345,-0.3263,0.2978,0.0786,49.27255511,-122.9764584,0
0.628542,0.1979,0.9132,0.4417,0.588,0.2135,0.1345,-0.3263,0.2978,0.0786,49.27255511,-122.9764584,0
0.631532,0.1979,0.9132,0.4417,0.588,0.2135,0.1345,-0.3263,0.2978,0.0786,49.27255511,-122.9764584,0
0.649948,0.1979,0.9132,0.4417,0.588,0.2135,0.1345,-0.3263,0.2978,0.0786,49.27255511,-122.9764584,0
0.652685,0.1346,0.9169,0.3937,0.588,0.2135,0.1345,-0.3263,0.2978,0.0786,49.27255511,-122.9764584,0
0.655759,0.1346,0.9169,0.3937,0.588,0.2135,0.1345,-0.2903,0.024,0.0977,49.27255511,-122.9764584,0
0.668027,0.044,0.8958,0.4397,0.588,0.2135,0.1345,-0.2903,0.024,0.0977,49.27255511,-122.9764584,0
0.6758,0.044,0.8958,0.4397,-0.6253,-0.2494,0.2251,-0.2903,0.024,0.0977,49.27255511,-122.9764584,0
0.71138,0.044,0.8958,0.4397,-0.6253,-0.2494,0.2251,-0.2903,0.024,0.0977,49.27255511,-122.9764584,0
0.713646,0.0463,0.8833,0.3842,-0.6253,-0.2494,0.2251,-0.2903,0.024,0.0977,49.27255511,-122.9764584,0
0.715501,0.0878,0.8602,0.3667,-0.6253,-0.2494,0.2251,-0.2903,0.024,0.0977,49.27255511,-122.9764584,0
0.724849,0.0878,0.8602,0.3667,-0.6253,-0.2494,0.2251,-0.2323,0.3819,0.0721,49.27255511,-122.9764584,0
0.745544,0.0878,0.8602,0.3667,0.6326,0.1498,0.456,-0.2323,0.3819,0.0721,49.27255511,-122.9764584,0
0.748054,0.1267,0.9047,0.3753,0.6326,0.1498,0.456,-0.2323,0.3819,0.0721,49.27255511,-122.9764584,0
0.749669,0.0271,0.8811,0.4568,0.6326,0.1498,0.456,-0.2323,0.3819,0.0721,49.27255511,-122.9764584,0
0.771221,0.0271,0.8811,0.4568,0.6326,0.1498,0.456,-0.2323,0.3819,0.0721,49.27255511,-122.9764584,0
0.774482,-0.0192,0.8726,0.44,0.6326,0.1498,0.456,-0.2323,0.3819,0.0721,49.27255511,-122.9764584,0
0.792673,-0.0192,0.8726,0.44,0.6326,0.1498,0.456,-0.1985,0.5611,0.0195,49.27255511,-122.9764584,0
0.795988,0.033,0.8526,0.4143,0.6326,0.1498,0.456,-0.1985,0.5611,0.0195,49.27255511,-122.9764584,0
0.809467,0.0179,0.8709,0.4091,0.6326,0.1498,0.456,-0.1985,0.5611,0.0195,49.27255511,-122.9764584,0
0.813711,0.0179,0.8709,0.4091,0.6326,0.1498,0.456,-0.1985,0.5611,0.0195,49.27255511,-122.9764584,0
0.816172,0.0179,0.8709,0.4091,0.3752,-0.0171,0.0431,-0.1985,0.5611,0.0195,49.27255511,-122.9764584,0
0.851293,0.0179,0.8709,0.4091,0.3752,-0.0171,0.0431,-0.1985,0.5611,0.0195,49.27255511,-122.9764584,0
0.855252,0.0407,0.8639,0.4637,0.3752,-0.0171,0.0431,-0.1985,0.5611,0.0195,49.27255511,-122.9764584,0
0.858983,0.0591,0.8328,0.4845,0.3752,-0.0171,0.0431,-0.1985,0.5611,0.0195,49.27255511,-122.9764584,0
0.861749,0.0591,0.8328,0.4845,0.3752,-0.0171,0.0431,-0.0974,0.2272,-0.0049,49.27255511,-122.9764584,0
0.872006,0.0276,0.837,0.4233,0.3752,-0.0171,0.0431,-0.0974,0.2272,-0.0049,49.27255511,-122.9764584,0
0.882584,0.0276,0.837,0.4233,-0.1548,-0.1225,0.2204,-0.0974,0.2272,-0.0049,49.27255511,-122.9764584,0
0.88564,0.0784,0.8686,0.4198,-0.1548,-0.1225,0.2204,-0.0974,0.2272,-0.0049,49.27255511,-122.9764584,0
0.913804,0.0784,0.8686,0.4198,-0.1548,-0.1225,0.2204,-0.0974,0.2272,-0.0049,49.27255511,-122.9764584,0
0.916359,0.0539,0.8706,0.45,-0.1548,-0.1225,0.2204,-0.0974,0.2272,-0.0049,49.27255511,-122.9764584,0
0.92867,0.0539,0.8706,0.45,-0.1548,-0.1225,0.2204,0.0113,0.0087,-0.0469,49.27255511,-122.9764584,0
0.930696,0.037,0.8681,0.4637,-0.1548,-0.1225,0.2204,0.0113,0.0087,-0.0469,49.27255511,-122.9764584,0
0.949746,0.037,0.8681,0.4637,0.275,-0.2586,0.3663,0.0113,0.0087,-0.0469,49.27255511,-122.9764584,0
0.953883,0.0345,0.8748,0.4276,0.275,-0.2586,0.3663,0.0113,0.0087,-0.0469,49.27255511,-122.9764584,0
0.970309,0.0345,0.8748,0.4276,0.275,-0.2586,0.3663,0.0113,0.0087,-0.0469,49.27255511,-122.9764584,0
0.973731,0.0265,0.8752,0.3944,0.275,-0.2586,0.3663,0.0113,0.0087,-0.0469,49.27255511,-122.9764584,0
0.994087,-0.0221,0.8733,0.4117,0.275,-0.2586,0.3663,0.0113,0.0087,-0.0469,49.27255511,-122.9764584,0
0.997166,-0.0221,0.8733,0.4117,0.275,-0.2586,0.3663,0.0113,0.0087,-0.0469,49.27255512,-122.9764584,0
0.999803,-0.0221,0.8733,0.4117,0.275,-0.2586,0.3663,0.0423,-0.0505,-0.1026,49.27255512,-122.9764584,0
1.001927,-0.0159,0.8759,0.4517,0.275,-0.2586,0.3663,0.0423,-0.0505,-0.1026,49.27255512,-122.9764584,0
1.018833,0.0021,0.8834,0.4356,0.275,-0.2586,0.3663,0.0423,-0.0505,-0.1026,49.27255512,-122.9764584,0
1.020649,0.0021,0.8834,0.4356,0.1707,-0.0356,0.2821,0.0423,-0.0505,-0.1026,49.27255512,-122.9764584,0
1.045999,-0.0095,0.8859,0.3815,0.1707,-0.0356,0.2821,0.0423,-0.0505,-0.1026,49.27255512,-122.9764584,0
1.051502,-0.0095,0.8859,0.3815,0.1707,-0.0356,0.2821,0.0423,-0.0505,-0.1026,49.27255512,-122.9764584,0
1.063138,-0.0095,0.8859,0.3815,0.1707,-0.0356,0.2821,0.0353,-0.0009,-0.0434,49.27255512,-122.9764584,0
1.066089,-0.0031,0.886,0.386,0.1707,-0.0356,0.2821,0.0353,-0.0009,-0.0434,49.27255512,-122.9764584,0
1.08319,0.0072,0.8703,0.4227,0.1707,-0.0356,0.2821,0.0353,-0.0009,-0.0434,49.27255512,-122.9764584,0
1.08594,0.0072,0.8703,0.4227,-0.2626,0.0076,0.1869,0.0353,-0.0009,-0.0434,49.27255512,-122.9764584,0
1.112141,0.0072,0.8703,0.4227,-0.2626,0.0076,0.1869,0.0353,-0.0009,-0.0434,49.27255512,-122.9764584,0
1.114447,0.0342,0.8759,0.4355,-0.2626,0.0076,0.1869,0.0353,-0.0009,-0.0434,49.27255512,-122.9764584,0
1.131877,0.0342,0.8759,0.4355,-0.2626,0.0076,0.1869,0.0473,-0.0475,-0.0405,49.27255512,-122.9764584,0
1.134159,0.0505,0.8739,0.4232,-0.2626,0.0076,0.1869,0.0473,-0.0475,-0.0405,49.27255512,-122.9764584,0
1.151844,0.0386,0.8643,0.4285,-0.2626,0.0076,0.1869,0.0473,-0.0475,-0.0405,49.27255512,-122.9764584,0
1.154301,-0.0161,0.872,0.4342,-0.2626,0.0076,0.1869,0.0473,-0.0475,-0.0405,49.27255512,-122.9764584,0
1.156137,-0.0161,0.872,0.4342,-0.1417,0.0208,-0.0436,0.0473,-0.0475,-0.0405,49.27255512,-122.9764584,0
1.169864,-0.0161,0.872,0.4342,-0.1417,0.0208,-0.0436,0.0473,-0.0475,-0.0405,49.27255512,-122.9764584,0
1.174528,-0.0161,0.872,0.4342,-0.1417,0.0208,-0.0436,0.0473,-0.0475,-0.0405,49.27255512,-122.9764584,0
1.178552,-0.0104,0.884,0.4335,-0.1417,0.0208,-0.0436,0.0473,-0.0475,-0.0405,49.27255512,-122.9764584,0
1.199516,-0.0104,0.884,0.4335,-0.1417,0.0208,-0.0436,0.0786,-0.0383,-0.0363,49.27255512,-122.9764584,0
1.202281,0.0165,0.8834,0.4018,-0.1417,0.0208,-0.0436,0.0786,-0.0383,-0.0363,49.27255512,-122.9764584,0
1.217701,-0.0072,0.8995,0.4031,-0.1417,0.0208,-0.0436,0.0786,-0.0383,-0.0363,49.27255512,-122.9764584,0
1.220701,-0.0072,0.8995,0.4031,0.103,-0.0728,0.2327,0.0786,-0.0383,-0.0363,49.27255512,-122.9764584,0
1.250319,-0.0072,0.8995,0.4031,0.103,-0.0728,0.2327,0.0786,-0.0383,-0.0363,49.27255512,-122.9764584,0
1.253385,-0.021,0.9238,0.4134,0.103,-0.0728,0.2327,0.0786,-0.0383,-0.0363,49.27255512,-122.9764584,0
1.255921,-0.0126,0.9116,0.442,0.103,-0.0728,0.2327,0.0786,-0.0383,-0.0363,49.27255512,-122.9764584,0
1.267004,-0.0126,0.9116,0.442,0.103,-0.0728,0.2327,0.1399,-0.0939,-0.0229,49.27255512,-122.9764584,0
1.284643,-0.0552,0.8524,0.4534,0.103,-0.0728,0.2327,0.1399,-0.0939,-0.0229,49.27255512,-122.9764584,0
1.288437,-0.0254,0.8424,0.4731,0.103,-0.0728,0.2327,0.1399,-0.0939,-0.0229,49.27255512,-122.9764584,0
1.291183,-0.0254,0.8424,0.4731,-0.1666,0.108,0.1071,0.1399,-0.0939,-0.0229,49.27255512,-122.9764584,0
1.310947,-0.0254,0.8424,0.4731,-0.1666,0.108,0.1071,0.1399,-0.0939,-0.0229,49.27255512,-122.9764584,0
1.314953,0.1007,0.8425,0.5176,-0.1666,0.108,0.1071,0.1399,-0.0939,-0.0229,49.27255512,-122.9764584,0
1.333925,0.1007,0.8425,0.5176,-0.1666,0.108,0.1071,0.3314,-0.3732,-0.0667,49.27255512,-122.9764584,0
1.337735,0.1164,0.8132,0.5202,-0.1666,0.108,0.1071,0.3314,-0.3732,-0.0667,49.27255512,-122.9764584,0
1.354645,0.0601,0.831,0.5285,-0.1666,0.108,0.1071,0.3314,-0.3732,-0.0667,49.27255512,-122.9764584,0
1.358962,0.0601,0.831,0.5285,-0.1666,0.108,0.1071,0.3314,-0.3732,-0.0667,49.27255512,-122.9764584,0
1.361859,0.0601,0.831,0.5285,-0.4084,-0.0975,0.5381,0.3314,-0.3732,-0.0667,49.27255512,-122.9764584,0
1.370031,0.0601,0.831,0.5285,-0.4084,-0.0975,0.5381,0.3314,-0.3732,-0.0667,49.27255512,-122.9764584,0
1.373041,0.145,0.8508,0.458,-0.4084,-0.0975,0.5381,0.3314,-0.3732,-0.0667,49.27255512,-122.9764584,0
1.401192,0.1831,0.8526,0.4669,-0.4084,-0.0975,0.5381,0.3314,-0.3732,-0.0667,49.27255512,-122.9764584,0
1.404672,0.1831,0.8526,0.4669,-0.4084,-0.0975,0.5381,0.6165,-0.5681,-0.2937,49.27255512,-122.9764584,0
1.412344,0.0664,0.8983,0.4219,-0.4084,-0.0975,0.5381,0.6165,-0.5681,-0.2937,49.27255512,-122.9764584,0
1.420797,-0.0784,0.9595,0.5095,-0.4084,-0.0975,0.5381,0.6165,-0.5681,-0.2937,49.27255512,-122.9764584,0
1.424258,-0.0784,0.9595,0.5095,0.7561,-0.608,1.3397,0.6165,-0.5681,-0.2937,49.27255512,-122.9764584,0
1.451082,-0.0784,0.9595,0.5095,0.7561,-0.608,1.3397,0.6165,-0.5681,-0.2937,49.27255512,-122.9764584,0
1.455176,-0.1171,0.8418,0.3383,0.7561,-0.608,1.3397,0.6165,-0.5681,-0.2937,49.27255512,-122.9764584,0
1.469871,-0.057,0.8311,0.5166,0.7561,-0.608,1.3397,0.6165,-0.5681,-0.2937,49.27255512,-122.9764584,0
1.47373,-0.057,0.8311,0.5166,0.7561,-0.608,1.3397,0.8787,-0.3424,-0.5689,49.27255512,-122.9764584,0
1.483689,0.0865,0.8271,0.4149,0.7561,-0.608,1.3397,0.8787,-0.3424,-0.5689,49.27255512,-122.9764584,0
1.48875,0.0865,0.8271,0.4149,0.6318,-0.1804,1.2847,0.8787,-0.3424,-0.5689,49.27255512,-122.9764584,0
1.510664,0.0865,0.8271,0.4149,0.6318,-0.1804,1.2847,0.8787,-0.3424,-0.5689,49.27255512,-122.9764584,0
1.51404,0.0788,0.9856,0.2347,0.6318,-0.1804,1.2847,0.8787,-0.3424,-0.5689,49.27255512,-122.9764584,0
1.529339,-0.0952,0.9804,0.1758,0.6318,-0.1804,1.2847,0.8787,-0.3424,-0.5689,49.27255512,-122.9764584,0
1.534372,-0.0952,0.9804,0.1758,0.6318,-0.1804,1.2847,0.8787,-0.3424,-0.5689,49.27255512,-122.9764584,0
1.537203,-0.0952,0.9804,0.1758,0.6318,-0.1804,1.2847,0.8787,-0.3424,-0.5689,49.27255512,-122.9764584,0
1.5399,-0.0952,0.9804,0.1758,0.6318,-0.1804,1.2847,1.0841,0.1965,-0.4842,49.27255512,-122.9764584,0
1.550117,-0.0848,0.8872,0.2531,0.6318,-0.1804,1.2847,1.0841,0.1965,-0.4842,49.27255512,-122.9764584,0
1.557714,0.182,0.9296,0.2162,0.6318,-0.1804,1.2847,1.0841,0.1965,-0.4842,49.27255512,-122.9764584,0
1.56036,0.182,0.9296,0.2162,0.1531,-0.7578,1.1639,1.0841,0.1965,-0.4842,49.27255512,-122.9764584,0
1.570725,0.182,0.9296,0.2162,0.1531,-0.7578,1.1639,1.0841,0.1965,-0.4842,49.27255512,-122.9764584,0
1.601577,0.1836,0.9843,0.1143,0.1531,-0.7578,1.1639,1.0841,0.1965,-0.4842,49.27255512,-122.9764584,0
1.605265,-0.1096,0.8747,0.0325,0.1531,-0.7578,1.1639,1.0841,0.1965,-0.4842,49.27255512,-122.9764584,0
1.608197,-0.1096,0.8747,0.0325,0.1531,-0.7578,1.1639,1.2461,0.4244,-0.5725,49.27255512,-122.9764584,0
1.617145,-0.2222,0.8253,0.0043,0.1531,-0.7578,1.1639,1.2461,0.4244,-0.5725,49.27255512,-122.9764584,0
1.624021,-0.2222,0.8253,0.0043,0.5719,-0.0195,0.0484,1.2461,0.4244,-0.5725,49.27255512,-122.9764584,0
1.651223,-0.2222,0.8253,0.0043,0.5719,-0.0195,0.0484,1.2461,0.4244,-0.5725,49.27255512,-122.9764584,0
1.653626,-0.1594,0.8653,0.1267,0.5719,-0.0195,0.0484,1.2461,0.4244,-0.5725,49.27255512,-122.9764584,0
1.664021,-0.134,0.9565,0.0829,0.5719,-0.0195,0.0484,1.2461,0.4244,-0.5725,49.27255512,-122.9764584,0
1.673687,-0.134,0.9565,0.0829,0.5719,-0.0195,0.0484,1.1641,0.348,-0.5551,49.27255512,-122.9764584,0
1.686443,-0.1579,0.9913,-0.0522,0.5719,-0.0195,0.0484,1.1641,0.348,-0.5551,49.27255512,-122.9764584,0
1.692749,-0.2128,0.9604,-0.1203,0.5719,-0.0195,0.0484,1.1641,0.348,-0.5551,49.27255512,-122.9764584,0
1.696645,-0.2128,0.9604,-0.1203,0.2879,-0.6384,-0.5978,1.1641,0.348,-0.5551,49.27255512,-122.9764584,0
1.708893,-0.2128,0.9604,-0.1203,0.2879,-0.6384,-0.5978,1.1641,0.348,-0.5551,49.27255512,-122.9764584,0
1.712616,-0.2128,0.9604,-0.1203,0.2879,-0.6384,-0.5978,1.1641,0.348,-0.5551,49.27255512,-122.9764584,0
1.734946,-0.2517,0.8593,-0.1249,0.2879,-0.6384,-0.5978,1.1641,0.348,-0.5551,49.27255512,-122.9764584,0
1.738503,-0.2393,0.9218,-0.181,0.2879,-0.6384,-0.5978,1.1641,0.348,-0.5551,49.27255512,-122.9764584,0
1.74058,-0.2393,0.9218,-0.181,0.2879,-0.6384,-0.5978,1.0061,0.1626,-0.399,49.27255512,-122.9764584,0
1.752821,-0.1503,1.0076,-0.1833,0.2879,-0.6384,-0.5978,1.0061,0.1626,-0.399,49.27255512,-122.9764584,0
1.759398,-0.1503,1.0076,-0.1833,-0.3074,-0.0053,-0.5332,1.0061,0.1626,-0.399,49.27255512,-122.9764584,0
1.770174,-0.1503,1.0076,-0.1833,-0.3074,-0.0053,-0.5332,1.0061,0.1626,-0.399,49.27255512,-122.9764584,0
1.773375,-0.0022,0.9447,-0.1156,-0.3074,-0.0053,-0.5332,1.0061,0.1626,-0.399,49.27255512,-122.9764584,0
1.80848,0.0016,0.9056,-0.0422,-0.3074,-0.0053,-0.5332,1.0061,0.1626,-0.399,49.27255512,-122.9764584,0
1.811102,0.0016,0.9056,-0.0422,-0.3074,-0.0053,-0.5332,0.7086,0.1904,-0.5233,49.27255512,-122.9764584,0
1.818843,-0.0923,0.9359,-0.0444,-0.3074,-0.0053,-0.5332,0.7086,0.1904,-0.5233,49.27255512,-122.9764584,0
1.827452,-0.0923,0.9359,-0.0444,-0.2957,-0.1796,-1.3792,0.7086,0.1904,-0.5233,49.27255512,-122.9764584,0
1.830709,-0.3137,0.986,-0.1635,-0.2957,-0.1796,-1.3792,0.7086,0.1904,-0.5233,49.27255512,-122.9764584,0
1.850738,-0.3137,0.986,-0.1635,-0.2957,-0.1796,-1.3792,0.7086,0.1904,-0.5233,49.27255512,-122.9764584,0
1.855256,-0.4703,0.9097,-0.1847,-0.2957,-0.1796,-1.3792,0.7086,0.1904,-0.5233,49.27255512,-122.9764584,0
1.87732,-0.4703,0.9097,-0.1847,-0.2957,-0.1796,-1.3792,0.6509,0.106,-0.5056,49.27255512,-122.9764584,0
1.881612,-0.3844,0.8875,-0.1803,-0.2957,-0.1796,-1.3792,0.6509,0.106,-0.5056,49.27255512,-122.9764584,0
1.888769,-0.3844,0.8875,-0.1803,-0.2957,-0.1796,-1.3792,0.6509,0.106,-0.5056,49.27255512,-122.9764584,0
1.89158,-0.3807,0.8807,-0.1141,-0.2957,-0.1796,-1.3792,0.6509,0.106,-0.5056,49.27255512,-122.9764584,0
1.894171,-0.3807,0.8807,-0.1141,0.8184,-0.0403,-0.2218,0.6509,0.106,-0.5056,49.27255512,-122.9764584,0
1.911358,-0.3553,0.8953,-0.1122,0.8184,-0.0403,-0.2218,0.6509,0.106,-0.5056,49.27255512,-122.9764584,0
1.914597,-0.3553,0.8953,-0.1122,0.8184,-0.0403,-0.2218,0.6509,0.106,-0.5056,49.27255512,-122.9764584,0
1.930871,0.0023,1.1087,-0.117,0.8184,-0.0403,-0.2218,0.6509,0.106,-0.5056,49.27255512,-122.9764584,0
1.943751,0.0023,1.1087,-0.117,0.8184,-0.0403,-0.2218,0.6235,-0.5605,-0.4418,49.27255512,-122.9764584,0
1.957637,0.156,1.0263,-0.094,0.8184,-0.0403,-0.2218,0.6235,-0.5605,-0.4418,49.27255512,-122.9764584,0
1.962689,-0.0535,0.827,-0.1752,0.8184,-0.0403,-0.2218,0.6235,-0.5605,-0.4418,49.27255512,-122.9764584,0
1.965934,-0.0535,0.827,-0.1752,-1.7844,-0.4437,-0.4861,0.6235,-0.5605,-0.4418,49.27255512,-122.9764584,0
1.97272,-0.0535,0.827,-0.1752,-1.7844,-0.4437,-0.4861,0.6235,-0.5605,-0.4418,49.27255512,-122.9764584,0
2.012555,-0.0535,0.827,-0.1752,-1.7844,-0.4437,-0.4861,0.5992,-0.3891,-0.804,49.27255512,-122.9764584,0
2.015133,-0.3855,0.7207,-0.3785,-1.7844,-0.4437,-0.4861,0.5992,-0.3891,-0.804,49.27255512,-122.9764584,0
2.018325,-0.3056,0.9259,-0.3706,-1.7844,-0.4437,-0.4861,0.5992,-0.3891,-0.804,49.27255512,-122.9764584,0
2.032083,-0.3056,0.9259,-0.3706,2.4187,0.5873,0.0721,0.5992,-0.3891,-0.804,49.27255512,-122.9764584,0
2.034362,0.0415,1.092,-0.104,2.4187,0.5873,0.0721,0.5992,-0.3891,-0.804,49.27255512,-122.9764584,0
2.047167,0.0528,0.9679,-0.1187,2.4187,0.5873,0.0721,0.5992,-0.3891,-0.804,49.27255512,-122.9764584,0
2.053075,0.0528,0.9679,-0.1187,2.4187,0.5873,0.0721,0.5992,-0.3891,-0.804,49.27255512,-122.9764584,0
2.070721,-0.2912,0.8821,-0.3738,2.4187,0.5873,0.0721,0.5992,-0.3891,-0.804,49.27255512,-122.9764584,0
2.075018,-0.2912,0.8821,-0.3738,2.4187,0.5873,0.0721,0.5992,-0.3891,-0.804,49.27255512,-122.9764584,0
2.078672,-0.2912,0.8821,-0.3738,2.4187,0.5873,0.0721,0.5528,-0.3036,-1.3298,49.27255512,-122.9764584,0
2.086335,-0.3773,0.8531,-0.2726,2.4187,0.5873,0.0721,0.5528,-0.3036,-1.3298,49.27255512,-122.9764584,0
2.098767,-0.3922,0.932,-0.3428,2.4187,0.5873,0.0721,0.5528,-0.3036,-1.3298,49.27255512,-122.9764584,0
2.101996,-0.3922,0.932,-0.3428,1.4917,0.3472,-0.8234,0.5528,-0.3036,-1.3298,49.27255512,-122.9764584,0
2.109978,-0.3922,0.932,-0.3428,1.4917,0.3472,-0.8234,0.5528,-0.3036,-1.3298,49.27255512,-122.9764584,0
2.134546,-0.3948,0.9751,-0.3144,1.4917,0.3472,-0.8234,0.5528,-0.3036,-1.3298,49.27255512,-122.9764584,0
2.146481,-0.3948,0.9751,-0.3144,1.4917,0.3472,-0.8234,0.3059,-0.2824,-1.5277,49.27255512,-122.9764584,0
2.151101,-0.4909,0.9888,-0.3405,1.4917,0.3472,-0.8234,0.3059,-0.2824,-1.5277,49.27255512,-122.9764584,0
2.164625,-0.64,0.8982,-0.5231,1.4917,0.3472,-0.8234,0.3059,-0.2824,-1.5277,49.27255512,-122.9764584,0
2.168281,-0.64,0.8982,-0.5231,0.9878,0.3432,-1.197,0.3059,-0.2824,-1.5277,49.27255512,-122.9764584,0
2.170636,-0.64,0.8982,-0.5231,0.9878,0.3432,-1.197,0.3059,-0.2824,-1.5277,49.27255512,-122.9764584,0
2.215381,-0.64,0.8982,-0.5231,0.9878,0.3432,-1.197,-0.3503,0.1498,-0.9775,49.27255512,-122.9764584,0
2.21934,-0.7857,0.9439,-0.5148,0.9878,0.3432,-1.197,-0.3503,0.1498,-0.9775,49.27255512,-122.9764584,0
2.221993,-0.6829,1.2489,-0.4366,0.9878,0.3432,-1.197,-0.3503,0.1498,-0.9775,49.27255512,-122.9764584,0
2.224027,-0.5961,1.5286,-0.499,0.9878,0.3432,-1.197,-0.3503,0.1498,-0.9775,49.27255512,-122.9764584,0
2.234595,-0.3135,1.758,-0.4644,0.9878,0.3432,-1.197,-0.3503,0.1498,-0.9775,49.27255512,-122.9764584,0
2.237988,-0.3135,1.758,-0.4644,-0.6493,1.1889,-2.13,-0.3503,0.1498,-0.9775,49.27255512,-122.9764584,0
2.249965,-0.3135,1.758,-0.4644,-0.6493,1.1889,-2.13,-0.3503,0.1498,-0.9775,49.27255512,-122.9764584,0
2.254153,-0.3135,1.758,-0.4644,-0.6493,1.1889,-2.13,-0.3503,0.1498,-0.9775,49.27255512,-122.9764584,0
2.268293,0.0985,1.9351,-0.4018,-0.6493,1.1889,-2.13,-0.3503,0.1498,-0.9775,49.27255512,-122.9764584,0
2.272101,0.0985,1.9351,-0.4018,-0.6493,1.1889,-2.13,-0.3503,0.1498,-0.9775,49.27255512,-122.9764584,0
2.282135,0.0985,1.9351,-0.4018,-0.6493,1.1889,-2.13,-0.5038,-0.1891,-0.5945,49.27255512,-122.9764584,0
2.28638,0.4429,1.7344,-0.4093,-0.6493,1.1889,-2.13,-0.5038,-0.1891,-0.5945,49.27255512,-122.9764584,0
2.302573,0.2961,1.2584,-0.0043,-0.6493,1.1889,-2.13,-0.5038,-0.1891,-0.5945,49.27255512,-122.9764584,0
2.305332,0.2961,1.2584,-0.0043,-0.2937,6.1669,-2.8046,-0.5038,-0.1891,-0.5945,49.27255512,-122.9764584,0
2.31113,0.2961,1.2584,-0.0043,-0.2937,6.1669,-2.8046,-0.5038,-0.1891,-0.5945,49.27255512,-122.9764584,0
2.352779,0.2961,1.2584,-0.0043,-0.2937,6.1669,-2.8046,-0.4016,-1.3061,-1.7243,49.27255512,-122.9764584,0
2.355147,-0.0226,1.0136,0.17,-0.2937,6.1669,-2.8046,-0.4016,-1.3061,-1.7243,49.27255512,-122.9764584,0
2.357167,0.079,1.0468,-0.0143,-0.2937,6.1669,-2.8046,-0.4016,-1.3061,-1.7243,49.27255512,-122.9764584,0
2.359229,0.5568,1.3531,-0.4857,-0.2937,6.1669,-2.8046,-0.4016,-1.3061,-1.7243,49.27255512,-122.9764584,0
2.373715,0.3709,1.3349,-0.3666,-0.2937,6.1669,-2.8046,-0.4016,-1.3061,-1.7243,49.27255512,-122.9764584,0
2.376815,0.3709,1.3349,-0.3666,7.8746,7.2806,-0.8138,-0.4016,-1.3061,-1.7243,49.27255512,-122.9764584,0
2.379938,0.3709,1.3349,-0.3666,7.8746,7.2806,-0.8138,-0.4016,-1.3061,-1.7243,49.27255512,-122.9764584,0
2.413681,0.349,1.1734,-0.3493,7.8746,7.2806,-0.8138,-0.4016,-1.3061,-1.7243,49.27255512,-122.9764584,0
2.415927,0.4415,1.2911,-0.3299,7.8746,7.2806,-0.8138,-0.4016,-1.3061,-1.7243,49.27255512,-122.9764584,0
2.418097,0.4415,1.2911,-0.3299,7.8746,7.2806,-0.8138,0.1342,1.0807,-4.1385,49.27255512,-122.9764584,0
2.429183,0.4415,1.2911,-0.3299,7.8746,7.2806,-0.8138,0.1342,1.0807,-4.1385,49.27255512,-122.9764584,0
2.431046,0.8102,1.4502,-0.4332,7.8746,7.2806,-0.8138,0.1342,1.0807,-4.1385,49.27255512,-122.9764584,0
2.435762,0.8102,1.4502,-0.4332,9.4028,4.9434,-1.2879,0.1342,1.0807,-4.1385,49.27255512,-122.9764584,0
2.452429,0.7748,1.4695,-0.7233,9.4028,4.9434,-1.2879,0.1342,1.0807,-4.1385,49.27255512,-122.9764584,0
2.454267,0.7748,1.4695,-0.7233,9.4028,4.9434,-1.2879,0.1342,1.0807,-4.1385,49.27255512,-122.9764584,0
2.469199,0.2348,1.2374,-0.4114,9.4028,4.9434,-1.2879,0.1342,1.0807,-4.1385,49.27255512,-122.9764584,0
2.485867,0.2348,1.2374,-0.4114,9.4028,4.9434,-1.2879,0.0034,1.722,-1.5427,49.27255512,-122.9764584,0
2.503903,0.2348,1.2374,-0.4114,13.144,7.5759,-2.6135,0.0034,1.722,-1.5427,49.27255512,-122.9764584,0
2.508733,-0.4388,1.2633,-0.6688,13.144,7.5759,-2.6135,0.0034,1.722,-1.5427,49.27255512,-122.9764584,0
2.513656,-0.9182,1.1155,-0.7008,13.144,7.5759,-2.6135,0.0034,1.722,-1.5427,49.27255512,-122.9764584,0
2.518807,-0.9182,1.1155,-0.7008,13.144,7.5759,-2.6135,0.0034,1.722,-1.5427,49.27255512,-122.9764584,0
2.551819,-0.6202,1.1027,-0.7939,13.144,7.5759,-2.6135,0.0034,1.722,-1.5427,49.27255512,-122.9764584,0
2.554742,-0.6294,1.0024,-0.8847,13.144,7.5759,-2.6135,0.0034,1.722,-1.5427,49.27255512,-122.9764584,0
2.557446,-0.6294,1.0024,-0.8847,13.144,7.5759,-2.6135,-0.8647,1.2657,2.5607,49.27255512,-122.9764584,0
2.574013,-0.654,0.7651,-0.8761,13.144,7.5759,-2.6135,-0.8647,1.2657,2.5607,49.27255512,-122.9764584,0
2.577933,-0.654,0.7651,-0.8761,13.144,7.5759,-2.6135,-0.8647,1.2657,2.5607,49.27255512,-122.9764584,0
2.580492,-0.654,0.7651,-0.8761,5.072,6.5746,-2.8545,-0.8647,1.2657,2.5607,49.27255512,-122.9764584,0
2.60855,-0.654,0.7651,-0.8761,5.072,6.5746,-2.8545,-0.8647,1.2657,2.5607,49.27255512,-122.9764584,0
2.611124,-0.6238,0.4933,-0.7601,5.072,6.5746,-2.8545,-0.8647,1.2657,2.5607,49.27255512,-122.9764584,0
2.613402,-0.6134,0.2214,-0.6093,5.072,6.5746,-2.8545,-0.8647,1.2657,2.5607,49.27255512,-122.9764584,0
2.619681,-0.6134,0.2214,-0.6093,5.072,6.5746,-2.8545,-1.3689,1.6791,5.8516,49.27255512,-122.9764584,0
2.63905,-0.6134,0.2214,-0.6093,-1.2389,1.1649,-5.3006,-1.3689,1.6791,5.8516,49.27255512,-122.9764584,0
2.641253,-0.6976,0.0655,-0.5485,-1.2389,1.1649,-5.3006,-1.3689,1.6791,5.8516,49.27255512,-122.9764584,0
2.642941,-0.976,-0.0009,-0.6401,-1.2389,1.1649,-5.3006,-1.3689,1.6791,5.8516,49.27255512,-122.9764584,0
2.64963,-0.976,-0.0009,-0.6401,-1.2389,1.1649,-5.3006,-1.3689,1.6791,5.8516,49.27255512,-122.9764584,0
2.660951,-1.2504,-0.0476,-0.5193,-1.2389,1.1649,-5.3006,-1.3689,1.6791,5.8516,49.27255512,-122.9764584,0
2.682876,-1.9924,0.2771,-0.7127,-1.2389,1.1649,-5.3006,-1.3689,1.6791,5.8516,49.27255512,-122.9764584,0
2.688954,-1.9924,0.2771,-0.7127,-1.2389,1.1649,-5.3006,-1.1931,1.3413,6.3426,49.27255512,-122.9764584,0
2.707688,-2.6336,0.8774,-0.7013,-1.2389,1.1649,-5.3006,-1.1931,1.3413,6.3426,49.27255512,-122.9764584,0
2.711434,-2.6336,0.8774,-0.7013,-6.2518,-7.6234,-3.5082,-1.1931,1.3413,6.3426,49.27255512,-122.9764584,0
2.714856,-2.6336,0.8774,-0.7013,-6.2518,-7.6234,-3.5082,-1.1931,1.3413,6.3426,49.27255512,-122.9764584,0
2.751116,-2.4538,1.0913,-0.5707,-6.2518,-7.6234,-3.5082,-1.1931,1.3413,6.3426,49.27255512,-122.9764584,0
2.755043,-1.9476,0.8237,-0.2974,-6.2518,-7.6234,-3.5082,-1.1931,1.3413,6.3426,49.27255512,-122.9764584,0
2.758769,-1.9476,0.8237,-0.2974,-6.2518,-7.6234,-3.5082,0.1933,-0.0822,-0.0693,49.27255512,-122.9764584,0
2.775599,-1.9476,0.8237,-0.2974,-6.2518,-7.6234,-3.5082,0.1933,-0.0822,-0.0693,49.27255512,-122.9764584,0
2.778757,-1.9689,0.9709,0.35,-6.2518,-7.6234,-3.5082,0.1933,-0.0822,-0.0693,49.27255512,-122.9764584,0
2.781057,-1.8865,1.8583,0.3398,-6.2518,-7.6234,-3.5082,0.1933,-0.0822,-0.0693,49.27255512,-122.9764584,0
2.783141,-1.8865,1.8583,0.3398,-21.2453,-4.1629,-3.9152,0.1933,-0.0822,-0.0693,49.27255512,-122.9764584,0
2.796464,-1.8865,1.8583,0.3398,-21.2453,-4.1629,-3.9152,0.1933,-0.0822,-0.0693,49.27255512,-122.9764584,0
2.799896,-1.8865,1.8583,0.3398,-21.2453,-4.1629,-3.9152,0.1933,-0.0822,-0.0693,49.27255512,-122.9764584,0
2.802641,-0.2595,0.5714,-0.5662,-21.2453,-4.1629,-3.9152,0.1933,-0.0822,-0.0693,49.27255512,-122.9764584,0
2.816342,-1.5928,-0.2217,-0.6023,-21.2453,-4.1629,-3.9152,0.1933,-0.0822,-0.0693,49.27255512,-122.9764584,0
2.822694,-1.5928,-0.2217,-0.6023,-21.2453,-4.1629,-3.9152,1.2089,0.2672,-4.9761,49.27255512,-122.9764584,0
2.842763,-1.4242,0.9822,-0.7096,-21.2453,-4.1629,-3.9152,1.2089,0.2672,-4.9761,49.27255512,-122.9764584,0
2.845795,-1.4242,0.9822,-0.7096,-18.2469,2.797,3.0034,1.2089,0.2672,-4.9761,49.27255512,-122.9764584,0
2.849798,-1.4242,0.9822,-0.7096,-18.2469,2.797,3.0034,1.2089,0.2672,-4.9761,49.27255512,-122.9764584,0
2.883123,-0.932,0.7637,-0.7826,-18.2469,2.797,3.0034,1.2089,0.2672,-4.9761,49.27255512,-122.9764584,0
2.885629,-0.9024,1.3268,-0.9489,-18.2469,2.797,3.0034,1.2089,0.2672,-4.9761,49.27255512,-122.9764584,0
2.891395,-0.9024,1.3268,-0.9489,-18.2469,2.797,3.0034,0.4491,-0.8824,-2.4982,49.27255512,-122.9764584,0
2.914231,-0.9024,1.3268,-0.9489,-18.2469,2.797,3.0034,0.4491,-0.8824,-2.4982,49.27255512,-122.9764584,0
2.918202,-0.8592,1.384,-1.0318,-18.2469,2.797,3.0034,0.4491,-0.8824,-2.4982,49.27255512,-122.9764584,0
2.920569,-0.8592,1.384,-1.0318,-6.7267,-3.1006,-3.1253,0.4491,-0.8824,-2.4982,49.27255512,-122.9764584,0
2.922724,-0.9236,2.1955,-0.8413,-6.7267,-3.1006,-3.1253,0.4491,-0.8824,-2.4982,49.27255512,-122.9764584,0
2.931153,0.1839,3.7451,-0.4481,-6.7267,-3.1006,-3.1253,0.4491,-0.8824,-2.4982,49.27255512,-122.9764584,0
2.951794,1.0453,3.4042,-0.4519,-6.7267,-3.1006,-3.1253,0.4491,-0.8824,-2.4982,49.27255512,-122.9764584,0
2.959409,1.0453,3.4042,-0.4519,-6.7267,-3.1006,-3.1253,-0.3439,-0.498,-1.2527,49.27255512,-122.9764584,0
2.972481,1.0453,3.4042,-0.4519,-6.7267,-3.1006,-3.1253,-0.3439,-0.498,-1.2527,49.27255512,-122.9764584,0
2.975188,1.1278,2.261,-0.3673,-6.7267,-3.1006,-3.1253,-0.3439,-0.498,-1.2527,49.27255512,-122.9764584,0
2.977028,1.1278,2.261,-0.3673,-6.7267,-3.1006,-3.1253,-0.3439,-0.498,-1.2527,49.27255512,-122.9764584,0
2.978798,1.1278,2.261,-0.3673,-3.8623,7.147,-5.7305,-0.3439,-0.498,-1.2527,49.27255512,-122.9764584,0
3.001638,1.6235,1.9769,-0.2324,-3.8623,7.147,-5.7305,-0.3439,-0.498,-1.2527,49.27255512,-122.9764584,0
3.016488,1.5882,1.7519,-0.1404,-3.8623,7.147,-5.7305,-0.3439,-0.498,-1.2527,49.27255403,-122.9764813,1.79999995
3.026628,1.5882,1.7519,-0.1404,-3.8623,7.147,-5.7305,0.0444,-1.842,-2.365,49.27255403,-122.9764813,1.79999995
3.047249,1.391,0.9853,0.454,-3.8623,7.147,-5.7305,0.0444,-1.842,-2.365,49.27255403,-122.9764813,1.79999995
3.04939,1.391,0.9853,0.454,14.1348,21.3815,-1.5797,0.0444,-1.842,-2.365,49.27255403,-122.9764813,1.79999995
3.05154,0.3976,0.8989,-0.9878,14.1348,21.3815,-1.5797,0.0444,-1.842,-2.365,49.27255403,-122.9764813,1.79999995
3.053661,0.3976,0.8989,-0.9878,14.1348,21.3815,-1.5797,0.0444,-1.842,-2.365,49.27255403,-122.9764813,1.79999995
3.084022,0.7422,1.7896,0.1711,14.1348,21.3815,-1.5797,0.0444,-1.842,-2.365,49.27255403,-122.9764813,1.79999995
3.094855,2.4277,1.9046,0.1507,14.1348,21.3815,-1.5797,0.0444,-1.842,-2.365,49.27255403,-122.9764813,1.79999995
3.099711,2.4277,1.9046,0.1507,14.1348,21.3815,-1.5797,1.2903,-0.5707,-3.4861,49.27255403,-122.9764813,1.79999995
3.110096,2.4277,1.9046,0.1507,14.1348,21.3815,-1.5797,1.2903,-0.5707,-3.4861,49.27255403,-122.9764813,1.79999995
3.113196,1.2188,1.168,0.7124,14.1348,21.3815,-1.5797,1.2903,-0.5707,-3.4861,49.27255403,-122.9764813,1.79999995
3.115785,1.2188,1.168,0.7124,18.8308,6.8319,0.8243,1.2903,-0.5707,-3.4861,49.27255403,-122.9764813,1.79999995
3.149806,1.2188,1.168,0.7124,18.8308,6.8319,0.8243,1.2903,-0.5707,-3.4861,49.27255403,-122.9764813,1.79999995
3.153976,-0.0026,1.8454,-0.5541,18.8308,6.8319,0.8243,1.2903,-0.5707,-3.4861,49.27255403,-122.9764813,1.79999995
3.157951,-0.7008,1.6007,-0.4322,18.8308,6.8319,0.8243,1.2903,-0.5707,-3.4861,49.27255403,-122.9764813,1.79999995
3.165079,-0.7008,1.6007,-0.4322,18.8308,6.8319,0.8243,0.429,1.0299,-0.1759,49.27255403,-122.9764813,1.79999995
3.174921,-0.7008,1.6007,-0.4322,18.8308,6.8319,0.8243,0.429,1.0299,-0.1759,49.27255403,-122.9764813,1.79999995
3.177535,-1.2465,0.9634,-0.4018,18.8308,6.8319,0.8243,0.429,1.0299,-0.1759,49.27255403,-122.9764813,1.79999995
3.180974,-1.3809,0.8426,-0.6247,18.8308,6.8319,0.8243,0.429,1.0299,-0.1759,49.27255403,-122.9764813,1.79999995
3.183071,-1.3809,0.8426,-0.6247,19.8631,10.8466,5.087,0.429,1.0299,-0.1759,49.27255403,-122.9764813,1.79999995
3.201207,-1.3953,0.3544,-0.4332,19.8631,10.8466,5.087,0.429,1.0299,-0.1759,49.27255403,-122.9764813,1.79999995
3.230276,-1.3953,0.3544,-0.4332,19.8631,10.8466,5.087,-0.8505,0.859,6.1744,49.27255403,-122.9764813,1.79999995
3.23332,-1.1161,0.4627,-0.1774,19.8631,10.8466,5.087,-0.8505,0.859,6.1744,49.27255403,-122.9764813,1.79999995
3.249084,-0.9519,0.247,-0.0994,19.8631,10.8466,5.087,-0.8505,0.859,6.1744,49.27255403,-122.9764813,1.79999995
3.251853,-0.9519,0.247,-0.0994,-3.317,6.0549,-1.8003,-0.8505,0.859,6.1744,49.27255403,-122.9764813,1.79999995
3.253978,-0.9519,0.247,-0.0994,-3.317,6.0549,-1.8003,-0.8505,0.859,6.1744,49.27255403,-122.9764813,1.79999995
3.283433,-0.8398,0.1156,-0.1859,-3.317,6.0549,-1.8003,-0.8505,0.859,6.1744,49.27255403,-122.9764813,1.79999995
3.285979,-0.8043,0.3123,-0.3216,-3.317,6.0549,-1.8003,-0.8505,0.859,6.1744,49.27255403,-122.9764813,1.79999995
3.298341,-0.8043,0.3123,-0.3216,-3.317,6.0549,-1.8003,-1.0694,0.5658,8.549,49.27255403,-122.9764813,1.79999995
3.310405,-0.8043,0.3123,-0.3216,-3.317,6.0549,-1.8003,-1.0694,0.5658,8.549,49.27255403,-122.9764813,1.79999995
3.313414,-1.1919,0.7901,-0.3173,-3.317,6.0549,-1.8003,-1.0694,0.5658,8.549,49.27255403,-122.9764813,1.79999995
3.317204,-1.1919,0.7901,-0.3173,-8.7134,-5.5537,0.7298,-1.0694,0.5658,8.549,49.27255403,-122.9764813,1.79999995
3.319465,-2.7768,0.9436,-0.5667,-8.7134,-5.5537,0.7298,-1.0694,0.5658,8.549,49.27255403,-122.9764813,1.79999995
3.32895,-2.7768,0.9436,-0.5667,-8.7134,-5.5537,0.7298,-1.0694,0.5658,8.549,49.27255403,-122.9764813,1.79999995
3.349828,-2.8533,1.3339,-0.7373,-8.7134,-5.5537,0.7298,-1.0694,0.5658,8.549,49.27255403,-122.9764813,1.79999995
3.364981,-2.8533,1.3339,-0.7373,-8.7134,-5.5537,0.7298,-1.2831,0.8732,3.8993,49.27255403,-122.9764813,1.79999995
3.368062,-2.2208,0.9693,-0.3636,-8.7134,-5.5537,0.7298,-1.2831,0.8732,3.8993,49.27255403,-122.9764813,1.79999995
3.371169,-2.2208,0.9693,-0.3636,-8.7134,-5.5537,0.7298,-1.2831,0.8732,3.8993,49.27255403,-122.9764813,1.79999995
3.384998,-1.9905,0.5668,-0.2697,-8.7134,-5.5537,0.7298,-1.2831,0.8732,3.8993,49.27255403,-122.9764813,1.79999995
3.38792,-1.9905,0.5668,-0.2697,-16.8254,-2.8121,-1.5121,-1.2831,0.8732,3.8993,49.27255403,-122.9764813,1.79999995
3.401356,-1.9597,0.1017,-0.1866,-16.8254,-2.8121,-1.5121,-1.2831,0.8732,3.8993,49.27255403,-122.9764813,1.79999995
3.417277,-1.0307,1.2378,-0.8032,-16.8254,-2.8121,-1.5121,-1.2831,0.8732,3.8993,49.27255403,-122.9764813,1.79999995
3.433004,-1.0307,1.2378,-0.8032,-16.8254,-2.8121,-1.5121,1.1589,0.2784,-4.1533,49.27255403,-122.9764813,1.79999995
3.450057,-1.3703,3.4861,-0.1646,-16.8254,-2.8121,-1.5121,1.1589,0.2784,-4.1533,49.27255403,-122.9764813,1.79999995
3.453094,-1.3703,3.4861,-0.1646,-16.8254,-2.8121,-1.5121,1.1589,0.2784,-4.1533,49.27255403,-122.9764813,1.79999995
3.455708,-1.9969,-0.4831,-0.7591,-16.8254,-2.8121,-1.5121,1.1589,0.2784,-4.1533,49.27255403,-122.9764813,1.79999995
3.459466,-1.9969,-0.4831,-0.7591,-24.6947,-0.4288,-2.2469,1.1589,0.2784,-4.1533,49.27255403,-122.9764813,1.79999995
3.483665,-2.4889,-0.4189,-0.4542,-24.6947,-0.4288,-2.2469,1.1589,0.2784,-4.1533,49.27255403,-122.9764813,1.79999995
3.502069,-2.4889,-0.4189,-0.4542,-24.6947,-0.4288,-2.2469,1.0145,-0.1052,-4.5537,49.27255403,-122.9764813,1.79999995
3.506588,-0.7026,2.0338,-0.7752,-24.6947,-0.4288,-2.2469,1.0145,-0.1052,-4.5537,49.27255403,-122.9764813,1.79999995
3.513173,-0.7026,2.0338,-0.7752,-24.6947,-0.4288,-2.2469,1.0145,-0.1052,-4.5537,49.27255403,-122.9764813,1.79999995
3.518245,-0.7026,2.0338,-0.7752,-24.6947,-0.4288,-2.2469,1.0145,-0.1052,-4.5537,49.27255403,-122.9764813,1.79999995
3.52338,-1.5693,0.7878,-0.9207,-24.6947,-0.4288,-2.2469,1.0145,-0.1052,-4.5537,49.27255403,-122.9764813,1.79999995
3.52802,-1.5693,0.7878,-0.9207,-13.35,3.1856,-2.3294,1.0145,-0.1052,-4.5537,49.27255403,-122.9764813,1.79999995
3.538502,-1.3458,1.8186,-1.4321,-13.35,3.1856,-2.3294,1.0145,-0.1052,-4.5537,49.27255403,-122.9764813,1.79999995
3.541576,-1.3458,1.8186,-1.4321,-13.35,3.1856,-2.3294,1.0145,-0.1052,-4.5537,49.27255403,-122.9764813,1.79999995
3.548959,-0.5207,3.6596,-0.9032,-13.35,3.1856,-2.3294,1.0145,-0.1052,-4.5537,49.27255403,-122.9764813,1.79999995
3.568069,-0.5207,3.6596,-0.9032,-13.35,3.1856,-2.3294,-0.1655,-1.6989,-1.8631,49.27255403,-122.9764813,1.79999995
3.572825,1.012,4.8627,-0.2915,-13.35,3.1856,-2.3294,-0.1655,-1.6989,-1.8631,49.27255403,-122.9764813,1.79999995
3.576457,1.012,4.8627,-0.2915,-13.35,3.1856,-2.3294,-0.1655,-1.6989,-1.8631,49.27255403,-122.9764813,1.79999995
3.59299,1.8785,3.187,-0.2331,-13.35,3.1856,-2.3294,-0.1655,-1.6989,-1.8631,49.27255403,-122.9764813,1.79999995
3.597206,1.8785,3.187,-0.2331,-11.7032,0.7313,-5.0263,-0.1655,-1.6989,-1.8631,49.27255403,-122.9764813,1.79999995
3.617944,3.4396,1.8069,-0.6511,-11.7032,0.7313,-5.0263,-0.1655,-1.6989,-1.8631,49.27255403,-122.9764813,1.79999995
3.63614,3.4396,1.8069,-0.6511,-11.7032,0.7313,-5.0263,-0.1878,-2.564,-2.0801,49.27255403,-122.9764813,1.79999995
3.640714,2.2226,1.465,0.051,-11.7032,0.7313,-5.0263,-0.1878,-2.564,-2.0801,49.27255403,-122.9764813,1.79999995
3.65063,2.2226,1.465,0.051,-11.7032,0.7313,-5.0263,-0.1878,-2.564,-2.0801,49.27255403,-122.9764813,1.79999995
3.655253,1.4105,1.1077,0.3226,-11.7032,0.7313,-5.0263,-0.1878,-2.564,-2.0801,49.27255403,-122.9764813,1.79999995
3.658831,1.4105,1.1077,0.3226,9.8286,27.5976,-3.7375,-0.1878,-2.564,-2.0801,49.27255403,-122.9764813,1.79999995
3.678107,0.4451,0.9999,-0.4525,9.8286,27.5976,-3.7375,-0.1878,-2.564,-2.0801,49.27255403,-122.9764813,1.79999995
3.689741,0.4451,0.9999,-0.4525,9.8286,27.5976,-3.7375,-0.1878,-2.564,-2.0801,49.27255403,-122.9764813,1.79999995
3.69399,0.5531,1.3592,0.0902,9.8286,27.5976,-3.7375,-0.1878,-2.564,-2.0801,49.27255403,-122.9764813,1.79999995
3.705257,0.5531,1.3592,0.0902,9.8286,27.5976,-3.7375,1.3237,-0.6191,-4.0594,49.27255403,-122.9764813,1.79999995
3.710119,0.5531,1.3592,0.0902,9.8286,27.5976,-3.7375,1.3237,-0.6191,-4.0594,49.27255403,-122.9764813,1.79999995
3.713507,1.5094,1.2359,-0.3826,9.8286,27.5976,-3.7375,1.3237,-0.6191,-4.0594,49.27255403,-122.9764813,1.79999995
3.725145,2.1891,0.7317,0.6336,9.8286,27.5976,-3.7375,1.3237,-0.6191,-4.0594,49.27255403,-122.9764813,1.79999995
3.727867,2.1891,0.7317,0.6336,26.7238,6.5669,0.7285,1.3237,-0.6191,-4.0594,49.27255403,-122.9764813,1.79999995
3.74906,1.0072,0.5817,-0.0188,26.7238,6.5669,0.7285,1.3237,-0.6191,-4.0594,49.27255403,-122.9764813,1.79999995
3.770815,0.3823,1.7029,-0.4609,26.7238,6.5669,0.7285,1.3237,-0.6191,-4.0594,49.27255403,-122.9764813,1.79999995
3.775189,0.3823,1.7029,-0.4609,26.7238,6.5669,0.7285,1.3237,-0.6191,-4.0594,49.27255403,-122.9764813,1.79999995
3.778595,0.3823,1.7029,-0.4609,26.7238,6.5669,0.7285,0.5,0.7855,-0.9164,49.27255403,-122.9764813,1.79999995
3.793128,-0.4485,1.693,-1.0893,26.7238,6.5669,0.7285,0.5,0.7855,-0.9164,49.27255403,-122.9764813,1.79999995
3.797051,-0.4485,1.693,-1.0893,19.8175,5.5191,1.8562,0.5,0.7855,-0.9164,49.27255403,-122.9764813,1.79999995
3.817246,-0.8369,1.2315,-0.8314,19.8175,5.5191,1.8562,0.5,0.7855,-0.9164,49.27255403,-122.9764813,1.79999995
3.839771,-1.3347,0.8944,-0.965,19.8175,5.5191,1.8562,0.5,0.7855,-0.9164,49.27255403,-122.9764813,1.79999995
3.843942,-1.3347,0.8944,-0.965,19.8175,5.5191,1.8562,-1.1551,1.579,4.6131,49.27255403,-122.9764813,1.79999995
3.850438,-1.6095,0.631,-0.6795,19.8175,5.5191,1.8562,-1.1551,1.579,4.6131,49.27255403,-122.9764813,1.79999995
3.854034,-1.6095,0.631,-0.6795,19.8175,5.5191,1.8562,-1.1551,1.579,4.6131,49.27255403,-122.9764813,1.79999995
3.86398,-1.3341,0.5052,-0.1934,19.8175,5.5191,1.8562,-1.1551,1.579,4.6131,49.27255403,-122.9764813,1.79999995
3.868117,-1.3341,0.5052,-0.1934,7.9791,6.8256,-2.7763,-1.1551,1.579,4.6131,49.27255403,-122.9764813,1.79999995
3.871367,-1.3341,0.5052,-0.1934,7.9791,6.8256,-2.7763,-1.1551,1.579,4.6131,49.27255403,-122.9764813,1.79999995
3.8828,-1.1781,0.3363,-0.3157,7.9791,6.8256,-2.7763,-1.1551,1.579,4.6131,49.27255403,-122.9764813,1.79999995
3.906657,-1.1781,0.3363,-0.3157,7.9791,6.8256,-2.7763,-1.184,0.8366,8.6355,49.27255403,-122.9764813,1.79999995
3.910982,-0.8239,0.4649,-0.3128,7.9791,6.8256,-2.7763,-1.184,0.8366,8.6355,49.27255403,-122.9764813,1.79999995
3.9143,-0.8239,0.4649,-0.3128,7.9791,6.8256,-2.7763,-1.184,0.8366,8.6355,49.27255403,-122.9764813,1.79999995
3.925876,-1.1106,0.8983,-0.1725,7.9791,6.8256,-2.7763,-1.184,0.8366,8.6355,49.27255403,-122.9764813,1.79999995
3.929377,-1.1106,0.8983,-0.1725,-10.4383,-1.1939,-3.8449,-1.184,0.8366,8.6355,49.27255403,-122.9764813,1.79999995
3.950654,-1.9562,1.4563,-0.3889,-10.4383,-1.1939,-3.8449,-1.184,0.8366,8.6355,49.27255403,-122.9764813,1.79999995
3.972315,-1.9562,1.4563,-0.3889,-10.4383,-1.1939,-3.8449,-1.184,0.8366,8.6355,49.27255403,-122.9764813,1.79999995
3.975234,-2.3992,2.139,-0.5214,-10.4383,-1.1939,-3.8449,-1.184,0.8366,8.6355,49.27255403,-122.9764813,1.79999995
3.977165,-2.3992,2.139,-0.5214,-10.4383,-1.1939,-3.8449,-1.3909,0.6403,6.0627,49.27255403,-122.9764813,1.79999995
3.996376,-2.3992,2.139,-0.5214,-13.3182,-2.2684,-0.8639,-1.3909,0.6403,6.0627,49.27255403,-122.9764813,1.79999995
3.999067,-1.7496,1.1356,-0.1382,-13.3182,-2.2684,-0.8639,-1.3909,0.6403,6.0627,49.27255185,-122.9765167,2.91000009
4.000715,-1.9557,0.4509,-0.1666,-13.3182,-2.2684,-0.8639,-1.3909,0.6403,6.0627,49.27255185,-122.9765167,2.91000009
4.016624,-2.2084,0.3767,-0.0516,-13.3182,-2.2684,-0.8639,-1.3909,0.6403,6.0627,49.27255185,-122.9765167,2.91000009
4.042633,-2.2084,0.3767,-0.0516,-13.3182,-2.2684,-0.8639,0.4313,0.401,-2.1192,49.27255185,-122.9765167,2.91000009
4.046195,-1.4009,0.4544,-0.0118,-13.3182,-2.2684,-0.8639,0.4313,0.401,-2.1192,49.27255185,-122.9765167,2.91000009
4.05007,-1.4009,0.4544,-0.0118,-13.3182,-2.2684,-0.8639,0.4313,0.401,-2.1192,49.27255185,-122.9765167,2.91000009
4.053575,-1.4009,0.4544,-0.0118,-13.3182,-2.2684,-0.8639,0.4313,0.401,-2.1192,49.27255185,-122.9765167,2.91000009
4.066788,-0.1579,2.8591,-0.3173,-13.3182,-2.2684,-0.8639,0.4313,0.401,-2.1192,49.27255185,-122.9765167,2.91000009
4.070862,-0.1579,2.8591,-0.3173,-23.4472,4.32,-1.7769,0.4313,0.401,-2.1192,49.27255185,-122.9765167,2.91000009
4.074461,-0.1579,2.8591,-0.3173,-23.4472,4.32,-1.7769,0.4313,0.401,-2.1192,49.27255185,-122.9765167,2.91000009
4.082716,-2.1467,3.0376,-0.1845,-23.4472,4.32,-1.7769,0.4313,0.401,-2.1192,49.27255185,-122.9765167,2.91000009
4.110133,-2.1467,3.0376,-0.1845,-23.4472,4.32,-1.7769,1.911,1.0748,-6.6141,49.27255185,-122.9765167,2.91000009
4.114651,-3.3908,-2.4663,-0.5652,-23.4472,4.32,-1.7769,1.911,1.0748,-6.6141,49.27255185,-122.9765167,2.91000009
4.118165,-1.9256,0.8341,-1.1418,-23.4472,4.32,-1.7769,1.911,1.0748,-6.6141,49.27255185,-122.9765167,2.91000009
4.120815,-1.9256,0.8341,-1.1418,-23.4472,4.32,-1.7769,1.911,1.0748,-6.6141,49.27255185,-122.9765167,2.91000009
4.130417,-0.6455,2.2355,-1.0667,-23.4472,4.32,-1.7769,1.911,1.0748,-6.6141,49.27255185,-122.9765167,2.91000009
4.133839,-0.6455,2.2355,-1.0667,-13.5253,8.7491,0.1847,1.911,1.0748,-6.6141,49.27255185,-122.9765167,2.91000009
4.150623,-1.3326,0.9991,-1.1794,-13.5253,8.7491,0.1847,1.911,1.0748,-6.6141,49.27255185,-122.9765167,2.91000009
4.171094,-1.3326,0.9991,-1.1794,-13.5253,8.7491,0.1847,1.911,1.0748,-6.6141,49.27255185,-122.9765167,2.91000009
4.175705,-0.8393,3.0561,-1.0488,-13.5253,8.7491,0.1847,1.911,1.0748,-6.6141,49.27255185,-122.9765167,2.91000009
4.179075,-0.8393,3.0561,-1.0488,-13.5253,8.7491,0.1847,0.308,-1.3695,-3.0536,49.27255185,-122.9765167,2.91000009
4.197596,-0.8393,3.0561,-1.0488,-16.4387,-5.6246,-5.0303,0.308,-1.3695,-3.0536,49.27255185,-122.9765167,2.91000009
4.201264,0.53,4.7735,-0.1055,-16.4387,-5.6246,-5.0303,0.308,-1.3695,-3.0536,49.27255185,-122.9765167,2.91000009
4.217387,0.8267,3.1908,0.1001,-16.4387,-5.6246,-5.0303,0.308,-1.3695,-3.0536,49.27255185,-122.9765167,2.91000009
4.22847,1.8062,2.1103,-0.8918,-16.4387,-5.6246,-5.0303,0.308,-1.3695,-3.0536,49.27255185,-122.9765167,2.91000009
4.23198,1.8062,2.1103,-0.8918,-16.4387,-5.6246,-5.0303,0.308,-1.3695,-3.0536,49.27255185,-122.9765167,2.91000009
4.245267,1.8062,2.1103,-0.8918,-16.4387,-5.6246,-5.0303,-0.2425,-2.4432,-1.724,49.27255185,-122.9765167,2.91000009
4.249622,1.8062,2.1103,-0.8918,-16.4387,-5.6246,-5.0303,-0.2425,-2.4432,-1.724,49.27255185,-122.9765167,2.91000009
4.252608,2.568,1.375,-0.0723,-16.4387,-5.6246,-5.0303,-0.2425,-2.4432,-1.724,49.27255185,-122.9765167,2.91000009
4.26464,1.7269,1.6157,-0.2926,-16.4387,-5.6246,-5.0303,-0.2425,-2.4432,-1.724,49.27255185,-122.9765167,2.91000009
4.268454,1.7269,1.6157,-0.2926,1.4698,21.6346,-3.7683,-0.2425,-2.4432,-1.724,49.27255185,-122.9765167,2.91000009
4.270072,1.7269,1.6157,-0.2926,1.4698,21.6346,-3.7683,-0.2425,-2.4432,-1.724,49.27255185,-122.9765167,2.91000009
4.310942,1.7269,1.6157,-0.2926,1.4698,21.6346,-3.7683,-0.2425,-2.4432,-1.724,49.27255185,-122.9765167,2.91000009
4.316585,0.7028,1.3117,-0.1313,1.4698,21.6346,-3.7683,-0.2425,-2.4432,-1.724,49.27255185,-122.9765167,2.91000009
4.320881,0.2745,1.4243,-0.6157,1.4698,21.6346,-3.7683,-0.2425,-2.4432,-1.724,49.27255185,-122.9765167,2.91000009
4.324485,0.2745,1.4243,-0.6157,1.4698,21.6346,-3.7683,0.5224,-0.3308,-4.556,49.27255185,-122.9765167,2.91000009
4.336691,0.2745,1.4243,-0.6157,24.0232,10.9369,-2.4477,0.5224,-0.3308,-4.556,49.27255185,-122.9765167,2.91000009
4.340507,1.2837,1.2822,-0.0334,24.0232,10.9369,-2.4477,0.5224,-0.3308,-4.556,49.27255185,-122.9765167,2.91000009
4.350909,2.2147,0.9237,0.0893,24.0232,10.9369,-2.4477,0.5224,-0.3308,-4.556,49.27255185,-122.9765167,2.91000009
4.371738,1.4295,0.4654,0.4827,24.0232,10.9369,-2.4477,0.5224,-0.3308,-4.556,49.27255185,-122.9765167,2.91000009
4.376992,1.4295,0.4654,0.4827,24.0232,10.9369,-2.4477,0.5224,-0.3308,-4.556,49.27255185,-122.9765167,2.91000009
4.380938,1.4295,0.4654,0.4827,24.0232,10.9369,-2.4477,0.715,-0.8301,-2.2481,49.27255185,-122.9765167,2.91000009
4.400736,1.4295,0.4654,0.4827,16.6788,7.3667,-1.0323,0.715,-0.8301,-2.2481,49.27255185,-122.9765167,2.91000009
4.403,0.554,0.9218,-0.0572,16.6788,7.3667,-1.0323,0.715,-0.8301,-2.2481,49.27255185,-122.9765167,2.91000009
4.40453,-0.2288,1.9835,-0.9663,16.6788,7.3667,-1.0323,0.715,-0.8301,-2.2481,49.27255185,-122.9765167,2.91000009
4.411678,-0.2288,1.9835,-0.9663,16.6788,7.3667,-1.0323,0.715,-0.8301,-2.2481,49.27255185,-122.9765167,2.91000009
4.431276,-0.4343,1.0974,-0.2744,16.6788,7.3667,-1.0323,0.715,-0.8301,-2.2481,49.27255185,-122.9765167,2.91000009
4.448803,-0.8164,0.9419,-0.7019,16.6788,7.3667,-1.0323,0.715,-0.8301,-2.2481,49.27255185,-122.9765167,2.91000009
4.451345,-0.8164,0.9419,-0.7019,16.6788,7.3667,-1.0323,-0.2793,1.5015,2.6702,49.27255185,-122.9765167,2.91000009
4.453307,-0.8164,0.9419,-0.7019,16.6788,7.3667,-1.0323,-0.2793,1.5015,2.6702,49.27255185,-122.9765167,2.91000009
4.468516,-0.8164,0.9419,-0.7019,15.5919,5.2769,0.8002,-0.2793,1.5015,2.6702,49.27255185,-122.9765167,2.91000009
4.470659,-0.9339,0.8755,-1.0563,15.5919,5.2769,0.8002,-0.2793,1.5015,2.6702,49.27255185,-122.9765167,2.91000009
4.483411,-1.3858,0.8343,-0.8563,15.5919,5.2769,0.8002,-0.2793,1.5015,2.6702,49.27255185,-122.9765167,2.91000009
4.511416,-1.7356,0.6267,-0.1476,15.5919,5.2769,0.8002,-0.2793,1.5015,2.6702,49.27255185,-122.9765167,2.91000009
4.516698,-1.7356,0.6267,-0.1476,15.5919,5.2769,0.8002,-0.2793,1.5015,2.6702,49.27255185,-122.9765167,2.91000009
4.521471,-1.7356,0.6267,-0.1476,15.5919,5.2769,0.8002,-1.3909,1.7146,7.2535,49.27255185,-122.9765167,2.91000009
4.536627,-1.4505,0.359,-0.6792,15.5919,5.2769,0.8002,-1.3909,1.7146,7.2535,49.27255185,-122.9765167,2.91000009
4.541785,-1.0415,0.4009,-0.6548,15.5919,5.2769,0.8002,-1.3909,1.7146,7.2535,49.27255185,-122.9765167,2.91000009
4.54572,-1.0415,0.4009,-0.6548,-2.8013,1.9219,-5.0366,-1.3909,1.7146,7.2535,49.27255185,-122.9765167,2.91000009
4.570925,-1.0415,0.4009,-0.6548,-2.8013,1.9219,-5.0366,-1.3909,1.7146,7.2535,49.27255185,-122.9765167,2.91000009
4.575106,-0.9662,0.624,-0.3537,-2.8013,1.9219,-5.0366,-1.3909,1.7146,7.2535,49.27255185,-122.9765167,2.91000009
4.584639,-0.9662,0.624,-0.3537,-2.8013,1.9219,-5.0366,-1.1667,0.7744,8.4899,49.27255185,-122.9765167,2.91000009
4.589061,-1.4748,0.7529,-0.3079,-2.8013,1.9219,-5.0366,-1.1667,0.7744,8.4899,49.27255185,-122.9765167,2.91000009
4.592268,-1.4748,0.7529,-0.3079,-2.8013,1.9219,-5.0366,-1.1667,0.7744,8.4899,49.27255185,-122.9765167,2.91000009
4.600492,-2.0225,1.8584,-0.6433,-2.8013,1.9219,-5.0366,-1.1667,0.7744,8.4899,49.27255185,-122.9765167,2.91000009
4.603549,-2.0225,1.8584,-0.6433,-13.7557,-4.0894,-3.4555,-1.1667,0.7744,8.4899,49.27255185,-122.9765167,2.91000009
4.615903,-2.0997,2.0632,-0.1994,-13.7557,-4.0894,-3.4555,-1.1667,0.7744,8.4899,49.27255185,-122.9765167,2.91000009
4.651069,-2.0997,2.0632,-0.1994,-13.7557,-4.0894,-3.4555,-1.1667,0.7744,8.4899,49.27255185,-122.9765167,2.91000009
4.656233,-1.7512,0.5813,-0.0124,-13.7557,-4.0894,-3.4555,-1.1667,0.7744,8.4899,49.27255185,-122.9765167,2.91000009
4.660588,-1.7512,0.5813,-0.0124,-13.7557,-4.0894,-3.4555,-0.0686,-0.2353,1.8864,49.27255185,-122.9765167,2.91000009
4.664747,-1.5526,0.4637,0.5249,-13.7557,-4.0894,-3.4555,-0.0686,-0.2353,1.8864,49.27255185,-122.9765167,2.91000009
4.674616,-1.4623,0.4611,0.5321,-13.7557,-4.0894,-3.4555,-0.0686,-0.2353,1.8864,49.27255185,-122.9765167,2.91000009
4.677967,-1.4623,0.4611,0.5321,-18.9831,4.2062,-2.6231,-0.0686,-0.2353,1.8864,49.27255185,-122.9765167,2.91000009
4.711036,-1.4623,0.4611,0.5321,-18.9831,4.2062,-2.6231,-0.0686,-0.2353,1.8864,49.27255185,-122.9765167,2.91000009
4.715343,-0.3955,1.1216,-0.6497,-18.9831,4.2062,-2.6231,-0.0686,-0.2353,1.8864,49.27255185,-122.9765167,2.91000009
4.718524,-0.3831,4.6594,-0.2982,-18.9831,4.2062,-2.6231,-0.0686,-0.2353,1.8864,49.27255185,-122.9765167,2.91000009
4.720933,-0.3831,4.6594,-0.2982,-18.9831,4.2062,-2.6231,1.4549,2.1499,-5.2499,49.27255185,-122.9765167,2.91000009
4.73886,-3.2637,-0.2071,-1.341,-18.9831,4.2062,-2.6231,1.4549,2.1499,-5.2499,49.27255185,-122.9765167,2.91000009
4.74173,-3.2637,-0.2071,-1.341,-18.5361,-2.1126,3.9315,1.4549,2.1499,-5.2499,49.27255185,-122.9765167,2.91000009
4.750359,-3.4925,-1.2464,-0.8224,-18.5361,-2.1126,3.9315,1.4549,2.1499,-5.2499,49.27255185,-122.9765167,2.91000009
4.768344,-1.3257,1.3681,0.1607,-18.5361,-2.1126,3.9315,1.4549,2.1499,-5.2499,49.27255185,-122.9765167,2.91000009
4.771713,-1.3257,1.3681,0.1607,-18.5361,-2.1126,3.9315,1.4549,2.1499,-5.2499,49.27255185,-122.9765167,2.91000009
4.774292,-1.3257,1.3681,0.1607,-18.5361,-2.1126,3.9315,1.4549,2.1499,-5.2499,49.27255185,-122.9765167,2.91000009
4.787034,-1.3257,1.3681,0.1607,-18.5361,-2.1126,3.9315,1.2232,-1.0316,-4.6724,49.27255185,-122.9765167,2.91000009
4.79974,-0.0398,2.1171,-1.5417,-18.5361,-2.1126,3.9315,1.2232,-1.0316,-4.6724,49.27255185,-122.9765167,2.91000009
4.803523,-0.0398,2.1171,-1.5417,-18.5361,-2.1126,3.9315,1.2232,-1.0316,-4.6724,49.27255185,-122.9765167,2.91000009
4.806183,-0.0398,2.1171,-1.5417,-17.1278,4.352,-2.2857,1.2232,-1.0316,-4.6724,49.27255185,-122.9765167,2.91000009
4.809172,-1.2991,1.5086,-1.3034,-17.1278,4.352,-2.2857,1.2232,-1.0316,-4.6724,49.27255185,-122.9765167,2.91000009
4.851438,-1.2991,1.5086,-1.3034,-17.1278,4.352,-2.2857,1.2232,-1.0316,-4.6724,49.27255185,-122.9765167,2.91000009
4.857848,-0.1865,4.1364,-0.5127,-17.1278,4.352,-2.2857,1.2232,-1.0316,-4.6724,49.27255185,-122.9765167,2.91000009
4.86302,0.7517,3.753,0.0975,-17.1278,4.352,-2.2857,1.2232,-1.0316,-4.6724,49.27255185,-122.9765167,2.91000009
4.86767,0.7517,3.753,0.0975,-17.1278,4.352,-2.2857,-0.0536,-1.0844,-2.557,49.27255185,-122.9765167,2.91000009
4.88086,0.9423,2.5037,-0.5633,-17.1278,4.352,-2.2857,-0.0536,-1.0844,-2.557,49.27255185,-122.9765167,2.91000009
4.885743,0.9423,2.5037,-0.5633,-6.2535,4.9939,-8.897,-0.0536,-1.0844,-2.557,49.27255185,-122.9765167,2.91000009
4.913904,0.9423,2.5037,-0.5633,-6.2535,4.9939,-8.897,-0.0536,-1.0844,-2.557,49.27255185,-122.9765167,2.91000009
4.918877,2.5931,1.8137,-0.6302,-6.2535,4.9939,-8.897,-0.0536,-1.0844,-2.557,49.27255185,-122.9765167,2.91000009
4.92177,2.1019,1.4579,0.027,-6.2535,4.9939,-8.897,-0.0536,-1.0844,-2.557,49.27255185,-122.9765167,2.91000009
4.924769,2.1019,1.4579,0.027,-6.2535,4.9939,-8.897,-0.0924,-2.9336,-2.2479,49.27255185,-122.9765167,2.91000009
4.930671,1.0318,1.2446,-0.293,-6.2535,4.9939,-8.897,-0.0924,-2.9336,-2.2479,49.27255185,-122.9765167,2.91000009
4.942238,0.6784,1.3862,-0.7105,-6.2535,4.9939,-8.897,-0.0924,-2.9336,-2.2479,49.27255185,-122.9765167,2.91000009
4.946259,0.6784,1.3862,-0.7105,12.1538,23.8558,-2.1449,-0.0924,-2.9336,-2.2479,49.27255185,-122.9765167,2.91000009
4.951485,0.6784,1.3862,-0.7105,12.1538,23.8558,-2.1449,-0.0924,-2.9336,-2.2479,49.27255185,-122.9765167,2.91000009
4.970075,0.6784,1.3862,-0.7105,12.1538,23.8558,-2.1449,-0.0924,-2.9336,-2.2479,49.27255185,-122.9765167,2.91000009
4.972865,1.558,1.4369,0.4161,12.1538,23.8558,-2.1449,-0.0924,-2.9336,-2.2479,49.27255185,-122.9765167,2.91000009
4.99107,1.558,1.4369,0.4161,12.1538,23.8558,-2.1449,0.7568,-0.5217,-3.7911,49.27255185,-122.9765167,2.91000009
4.994195,2.3674,0.2921,-0.1746,12.1538,23.8558,-2.1449,0.7568,-0.5217,-3.7911,49.27255185,-122.9765167,2.91000009
5.003145,1.5399,-0.2555,0.5218,12.1538,23.8558,-2.1449,0.7568,-0.5217,-3.7911,49.27255185,-122.9765167,2.91000009
5.006349,1.5399,-0.2555,0.5218,12.1538,23.8558,-2.1449,0.7568,-0.5217,-3.7911,49.27255185,-122.9765167,2.91000009
5.009359,1.5399,-0.2555,0.5218,21.4336,7.3071,-1.8314,0.7568,-0.5217,-3.7911,49.27255185,-122.9765167,2.91000009
5.047507,1.0418,0.8737,0.1747,21.4336,7.3071,-1.8314,0.7568,-0.5217,-3.7911,49.27255185,-122.9765167,2.91000009
5.050129,0.194,2.6906,-1.1472,21.4336,7.3071,-1.8314,0.7568,-0.5217,-3.7911,49.27254974,-122.9765666,3.82999992
5.052335,0.194,2.6906,-1.1472,21.4336,7.3071,-1.8314,0.7568,-0.5217,-3.7911,49.27254974,-122.9765666,3.82999992
5.059476,0.194,2.6906,-1.1472,21.4336,7.3071,-1.8314,-0.0235,1.2073,0.6736,49.27254974,-122.9765666,3.82999992
5.078852,-0.4938,2.0489,-0.6401,21.4336,7.3071,-1.8314,-0.0235,1.2073,0.6736,49.27254974,-122.9765666,3.82999992
5.080981,-0.8578,1.5441,-0.7595,21.4336,7.3071,-1.8314,-0.0235,1.2073,0.6736,49.27254974,-122.9765666,3.82999992
5.082922,-0.8578,1.5441,-0.7595,23.9672,-0.6572,4.0703,-0.0235,1.2073,0.6736,49.27254974,-122.9765666,3.82999992
5.111987,-1.5922,1.0621,-1.1282,23.9672,-0.6572,4.0703,-0.0235,1.2073,0.6736,49.27254974,-122.9765666,3.82999992
5.114866,-1.5922,1.0621,-1.1282,23.9672,-0.6572,4.0703,-0.0235,1.2073,0.6736,49.27254974,-122.9765666,3.82999992
5.130184,-1.5922,1.0621,-1.1282,23.9672,-0.6572,4.0703,-1.0514,1.4159,4.9088,49.27254974,-122.9765666,3.82999992
5.132721,-1.7642,0.9716,-0.755,23.9672,-0.6572,4.0703,-1.0514,1.4159,4.9088,49.27254974,-122.9765666,3.82999992
5.134688,-1.7642,0.9716,-0.755,23.9672,-0.6572,4.0703,-1.0514,1.4159,4.9088,49.27254974,-122.9765666,3.82999992
5.146203,-1.1759,0.7305,-0.1998,23.9672,-0.6572,4.0703,-1.0514,1.4159,4.9088,49.27254974,-122.9765666,3.82999992
5.148841,-1.1759,0.7305,-0.1998,3.749,12.5389,-4.9282,-1.0514,1.4159,4.9088,49.27254974,-122.9765666,3.82999992
5.162929,-0.7172,0.5007,-0.1243,3.749,12.5389,-4.9282,-1.0514,1.4159,4.9088,49.27254974,-122.9765666,3.82999992
5.171806,-0.7172,0.5007,-0.1243,3.749,12.5389,-4.9282,-1.0514,1.4159,4.9088,49.27254974,-122.9765666,3.82999992
5.193868,-1.0003,0.6226,-0.5605,3.749,12.5389,-4.9282,-1.0514,1.4159,4.9088,49.27254974,-122.9765666,3.82999992
5.196587,-1.0003,0.6226,-0.5605,3.749,12.5389,-4.9282,-0.8715,1.1869,7.6803,49.27254974,-122.9765666,3.82999992
5.202371,-1.038,0.4395,-0.169,3.749,12.5389,-4.9282,-0.8715,1.1869,7.6803,49.27254974,-122.9765666,3.82999992
5.213745,-1.8217,0.3673,-0.5711,3.749,12.5389,-4.9282,-0.8715,1.1869,7.6803,49.27254974,-122.9765666,3.82999992
5.216451,-1.8217,0.3673,-0.5711,-11.3157,-0.2416,-3.9432,-0.8715,1.1869,7.6803,49.27254974,-122.9765666,3.82999992
5.252191,-1.8217,0.3673,-0.5711,-11.3157,-0.2416,-3.9432,-0.8715,1.1869,7.6803,49.27254974,-122.9765666,3.82999992
5.256092,-2.6803,1.9312,-0.645,-11.3157,-0.2416,-3.9432,-0.8715,1.1869,7.6803,49.27254974,-122.9765666,3.82999992
5.262178,-2.6803,1.9312,-0.645,-11.3157,-0.2416,-3.9432,-0.9037,0.0078,5.5692,49.27254974,-122.9765666,3.82999992
5.265939,-1.7206,1.7058,-0.3362,-11.3157,-0.2416,-3.9432,-0.9037,0.0078,5.5692,49.27254974,-122.9765666,3.82999992
5.28156,-1.4799,0.87,0.0781,-11.3157,-0.2416,-3.9432,-0.9037,0.0078,5.5692,49.27254974,-122.9765666,3.82999992
5.285251,-1.4799,0.87,0.0781,-14.2004,-3.9537,-2.4347,-0.9037,0.0078,5.5692,49.27254974,-122.9765666,3.82999992
5.309135,-1.6844,0.5795,0.0289,-14.2004,-3.9537,-2.4347,-0.9037,0.0078,5.5692,49.27254974,-122.9765666,3.82999992
5.314838,-1.6844,0.5795,0.0289,-14.2004,-3.9537,-2.4347,-0.9037,0.0078,5.5692,49.27254974,-122.9765666,3.82999992
5.31788,-1.7371,0.4395,0.0023,-14.2004,-3.9537,-2.4347,-0.9037,0.0078,5.5692,49.27254974,-122.9765666,3.82999992
5.320223,-1.7371,0.4395,0.0023,-14.2004,-3.9537,-2.4347,-0.9037,0.0078,5.5692,49.27254974,-122.9765666,3.82999992
5.32914,-1.7371,0.4395,0.0023,-14.2004,-3.9537,-2.4347,0.6512,0.0735,-2.0668,49.27254974,-122.9765666,3.82999992
5.334068,-1.1892,0.0969,0.4493,-14.2004,-3.9537,-2.4347,0.6512,0.0735,-2.0668,49.27254974,-122.9765666,3.82999992
5.337241,-1.1892,0.0969,0.4493,-14.2004,-3.9537,-2.4347,0.6512,0.0735,-2.0668,49.27254974,-122.9765666,3.82999992
5.349208,0.0677,1.5542,-0.9692,-14.2004,-3.9537,-2.4347,0.6512,0.0735,-2.0668,49.27254974,-122.9765666,3.82999992
5.351263,0.0677,1.5542,-0.9692,-21.8316,5.0596,-1.0075,0.6512,0.0735,-2.0668,49.27254974,-122.9765666,3.82999992
5.371862,0.0677,1.5542,-0.9692,-21.8316,5.0596,-1.0075,0.6512,0.0735,-2.0668,49.27254974,-122.9765666,3.82999992
5.374585,-0.2223,4.9399,0.8651,-21.8316,5.0596,-1.0075,0.6512,0.0735,-2.0668,49.27254974,-122.9765666,3.82999992
5.398778,-0.2223,4.9399,0.8651,-21.8316,5.0596,-1.0075,1.5812,2.2258,-5.6655,49.27254974,-122.9765666,3.82999992
5.40163,-4.3128,-1.1566,-1.2011,-21.8316,5.0596,-1.0075,1.5812,2.2258,-5.6655,49.27254974,-122.9765666,3.82999992
5.416019,-2.5515,-0.641,-1.2817,-21.8316,5.0596,-1.0075,1.5812,2.2258,-5.6655,49.27254974,-122.9765666,3.82999992
5.422421,-2.5515,-0.641,-1.2817,-11.1972,-2.0739,0.4234,1.5812,2.2258,-5.6655,49.27254974,-122.9765666,3.82999992
5.431752,-0.4808,2.3148,-0.8258,-11.1972,-2.0739,0.4234,1.5812,2.2258,-5.6655,49.27254974,-122.9765666,3.82999992
5.451512,-0.4808,2.3148,-0.8258,-11.1972,-2.0739,0.4234,1.5812,2.2258,-5.6655,49.27254974,-122.9765666,3.82999992
5.455232,-0.6771,1.3279,-1.1194,-11.1972,-2.0739,0.4234,1.5812,2.2258,-5.6655,49.27254974,-122.9765666,3.82999992
5.465889,-0.6771,1.3279,-1.1194,-11.1972,-2.0739,0.4234,0.514,-1.9539,-3.4534,49.27254974,-122.9765666,3.82999992
5.485388,-0.6771,1.3279,-1.1194,-18.6979,3.5057,-2.1867,0.514,-1.9539,-3.4534,49.27254974,-122.9765666,3.82999992
5.490271,-1.0827,2.1104,-1.3298,-18.6979,3.5057,-2.1867,0.514,-1.9539,-3.4534,49.27254974,-122.9765666,3.82999992
5.493413,0.2256,4.5979,-0.4835,-18.6979,3.5057,-2.1867,0.514,-1.9539,-3.4534,49.27254974,-122.9765666,3.82999992
5.496458,0.2256,4.5979,-0.4835,-18.6979,3.5057,-2.1867,0.514,-1.9539,-3.4534,49.27254974,-122.9765666,3.82999992
5.510206,0.2256,4.5979,-0.4835,-18.6979,3.5057,-2.1867,0.514,-1.9539,-3.4534,49.27254974,-122.9765666,3.82999992
5.513704,0.8875,3.3249,-0.0794,-18.6979,3.5057,-2.1867,0.514,-1.9539,-3.4534,49.27254974,-122.9765666,3.82999992
5.532975,0.8875,3.3249,-0.0794,-18.6979,3.5057,-2.1867,-0.0622,-2.4046,-1.6166,49.27254974,-122.9765666,3.82999992
5.53806,1.8847,2.4052,-0.6762,-18.6979,3.5057,-2.1867,-0.0622,-2.4046,-1.6166,49.27254974,-122.9765666,3.82999992
5.541407,1.8847,2.4052,-0.6762,-18.6979,3.5057,-2.1867,-0.0622,-2.4046,-1.6166,49.27254974,-122.9765666,3.82999992
5.552058,3.1847,1.7692,-0.0133,-18.6979,3.5057,-2.1867,-0.0622,-2.4046,-1.6166,49.27254974,-122.9765666,3.82999992
5.554206,3.1847,1.7692,-0.0133,0.0615,18.0714,-7.2547,-0.0622,-2.4046,-1.6166,49.27254974,-122.9765666,3.82999992
5.572502,3.1847,1.7692,-0.0133,0.0615,18.0714,-7.2547,-0.0622,-2.4046,-1.6166,49.27254974,-122.9765666,3.82999992
5.574425,2.0361,1.376,-0.1167,0.0615,18.0714,-7.2547,-0.0622,-2.4046,-1.6166,49.27254974,-122.9765666,3.82999992
5.601648,0.8845,1.1323,-0.0907,0.0615,18.0714,-7.2547,-0.0622,-2.4046,-1.6166,49.27254974,-122.9765666,3.82999992
5.604527,0.8845,1.1323,-0.0907,0.0615,18.0714,-7.2547,0.6208,-1.5968,-4.3318,49.27254974,-122.9765666,3.82999992
5.618411,0.6903,1.4301,-0.6165,0.0615,18.0714,-7.2547,0.6208,-1.5968,-4.3318,49.27254974,-122.9765666,3.82999992
5.622685,1.096,1.0915,0.0896,0.0615,18.0714,-7.2547,0.6208,-1.5968,-4.3318,49.27254974,-122.9765666,3.82999992
5.625796,1.096,1.0915,0.0896,25.1909,15.4702,-0.6772,0.6208,-1.5968,-4.3318,49.27254974,-122.9765666,3.82999992
5.650869,1.096,1.0915,0.0896,25.1909,15.4702,-0.6772,0.6208,-1.5968,-4.3318,49.27254974,-122.9765666,3.82999992
5.65473,1.7347,0.8849,-0.1708,25.1909,15.4702,-0.6772,0.6208,-1.5968,-4.3318,49.27254974,-122.9765666,3.82999992
5.66381,1.7223,0.6269,0.8231,25.1909,15.4702,-0.6772,0.6208,-1.5968,-4.3318,49.27254974,-122.9765666,3.82999992
5.668961,1.7223,0.6269,0.8231,25.1909,15.4702,-0.6772,0.8254,-0.8352,-2.8184,49.27254974,-122.9765666,3.82999992
5.671116,1.7223,0.6269,0.8231,25.1909,15.4702,-0.6772,0.8254,-0.8352,-2.8184,49.27254974,-122.9765666,3.82999992
5.683821,0.4342,1.2258,-0.185,25.1909,15.4702,-0.6772,0.8254,-0.8352,-2.8184,49.27254974,-122.9765666,3.82999992
5.688088,0.4342,1.2258,-0.185,17.2056,6.5917,-0.2026,0.8254,-0.8352,-2.8184,49.27254974,-122.9765666,3.82999992
5.710344,-0.4455,1.9616,-1.0795,17.2056,6.5917,-0.2026,0.8254,-0.8352,-2.8184,49.27254974,-122.9765666,3.82999992
5.713982,-0.4455,1.9616,-1.0795,17.2056,6.5917,-0.2026,0.8254,-0.8352,-2.8184,49.27254974,-122.9765666,3.82999992
5.734704,-0.4455,1.9616,-1.0795,17.2056,6.5917,-0.2026,0.8254,-0.8352,-2.8184,49.27254974,-122.9765666,3.82999992
5.739785,-0.6204,1.0466,-0.4211,17.2056,6.5917,-0.2026,0.8254,-0.8352,-2.8184,49.27254974,-122.9765666,3.82999992
5.743124,-0.6204,1.0466,-0.4211,17.2056,6.5917,-0.2026,-0.3683,2.061,1.5499,49.27254974,-122.9765666,3.82999992
5.746057,-0.9857,0.8901,-0.7813,17.2056,6.5917,-0.2026,-0.3683,2.061,1.5499,49.27254974,-122.9765666,3.82999992
5.756637,-0.9857,0.8901,-0.7813,17.7152,5.7303,1.8667,-0.3683,2.061,1.5499,49.27254974,-122.9765666,3.82999992
5.760186,-1.2084,0.6792,-1.0426,17.7152,5.7303,1.8667,-0.3683,2.061,1.5499,49.27254974,-122.9765666,3.82999992
5.771334,-1.2084,0.6792,-1.0426,17.7152,5.7303,1.8667,-0.3683,2.061,1.5499,49.27254974,-122.9765666,3.82999992
5.804823,-1.2084,0.6792,-1.0426,17.7152,5.7303,1.8667,-1.3234,1.0875,6.6761,49.27254974,-122.9765666,3.82999992
5.809986,-1.4051,0.6118,-0.5946,17.7152,5.7303,1.8667,-1.3234,1.0875,6.6761,49.27254974,-122.9765666,3.82999992
5.814014,-1.5057,0.4543,-0.1366,17.7152,5.7303,1.8667,-1.3234,1.0875,6.6761,49.27254974,-122.9765666,3.82999992
5.818263,-1.0077,0.236,-0.4002,17.7152,5.7303,1.8667,-1.3234,1.0875,6.6761,49.27254974,-122.9765666,3.82999992
5.825454,-1.0077,0.236,-0.4002,-3.4223,2.9171,-4.9859,-1.3234,1.0875,6.6761,49.27254974,-122.9765666,3.82999992
5.850719,-1.0077,0.236,-0.4002,-3.4223,2.9171,-4.9859,-1.3234,1.0875,6.6761,49.27254974,-122.9765666,3.82999992
5.855285,-0.9288,0.3955,-0.4129,-3.4223,2.9171,-4.9859,-1.3234,1.0875,6.6761,49.27254974,-122.9765666,3.82999992
5.858701,-0.9288,0.3955,-0.4129,-3.4223,2.9171,-4.9859,-1.3234,1.0875,6.6761,49.27254974,-122.9765666,3.82999992
5.868148,-1.235,0.4982,-0.1669,-3.4223,2.9171,-4.9859,-1.3234,1.0875,6.6761,49.27254974,-122.9765666,3.82999992
5.871951,-1.235,0.4982,-0.1669,-3.4223,2.9171,-4.9859,-0.9361,0.8979,8.1628,49.27254974,-122.9765666,3.82999992
5.882901,-2.1229,0.9504,-0.5194,-3.4223,2.9171,-4.9859,-0.9361,0.8979,8.1628,49.27254974,-122.9765666,3.82999992
5.890564,-2.3463,1.8481,-0.5108,-3.4223,2.9171,-4.9859,-0.9361,0.8979,8.1628,49.27254974,-122.9765666,3.82999992
5.893403,-2.3463,1.8481,-0.5108,-11.0588,-4.5802,-1.5594,-0.9361,0.8979,8.1628,49.27254974,-122.9765666,3.82999992
5.911462,-1.7532,1.4223,-0.3025,-11.0588,-4.5802,-1.5594,-0.9361,0.8979,8.1628,49.27254974,-122.9765666,3.82999992
5.915167,-1.7532,1.4223,-0.3025,-11.0588,-4.5802,-1.5594,-0.9361,0.8979,8.1628,49.27254974,-122.9765666,3.82999992
5.932591,-1.9136,0.6419,-0.0654,-11.0588,-4.5802,-1.5594,-0.9361,0.8979,8.1628,49.27254974,-122.9765666,3.82999992
5.939714,-1.9136,0.6419,-0.0654,-11.0588,-4.5802,-1.5594,-0.4085,0.1529,2.2201,49.27254974,-122.9765666,3.82999992
5.951062,-1.9118,0.5268,0.008,-11.0588,-4.5802,-1.5594,-0.4085,0.1529,2.2201,49.27254974,-122.9765666,3.82999992
5.959329,-1.9118,0.5268,0.008,-19.8675,1.4235,-2.1424,-0.4085,0.1529,2.2201,49.27254974,-122.9765666,3.82999992
5.971424,-1.5733,1.5592,0.0115,-19.8675,1.4235,-2.1424,-0.4085,0.1529,2.2201,49.27254974,-122.9765666,3.82999992
5.973656,-1.5733,1.5592,0.0115,-19.8675,1.4235,-2.1424,-0.4085,0.1529,2.2201,49.27254974,-122.9765666,3.82999992
6.007744,-1.5733,1.5592,0.0115,-19.8675,1.4235,-2.1424,1.1391,0.8866,-5.6871,49.27254974,-122.9765666,3.82999992
6.010299,-1.2138,3.2163,0.7808,-19.8675,1.4235,-2.1424,1.1391,0.8866,-5.6871,49.27254878,-122.97662,3.56999993
6.018465,-2.1838,-0.532,-1.4373,-19.8675,1.4235,-2.1424,1.1391,0.8866,-5.6871,49.27254878,-122.97662,3.56999993
6.027022,-2.1838,-0.532,-1.4373,-19.4154,-0.1788,0.8518,1.1391,0.8866,-5.6871,49.27254878,-122.97662,3.56999993
6.029469,-2.7522,-1.1897,-0.7558,-19.4154,-0.1788,0.8518,1.1391,0.8866,-5.6871,49.27254878,-122.97662,3.56999993
6.03155,-2.7522,-1.1897,-0.7558,-19.4154,-0.1788,0.8518,1.1391,0.8866,-5.6871,49.27254878,-122.97662,3.56999993
6.048971,-1.7007,2.1935,-0.4208,-19.4154,-0.1788,0.8518,1.1391,0.8866,-5.6871,49.27254878,-122.97662,3.56999993
6.053565,-1.7007,2.1935,-0.4208,-19.4154,-0.1788,0.8518,1.1391,0.8866,-5.6871,49.27254878,-122.97662,3.56999993
6.06778,-0.5658,1.8453,-1.3607,-19.4154,-0.1788,0.8518,1.1391,0.8866,-5.6871,49.27254878,-122.97662,3.56999993
6.072288,-0.5658,1.8453,-1.3607,-19.4154,-0.1788,0.8518,1.1391,0.8866,-5.6871,49.27254878,-122.97662,3.56999993
6.075434,-0.5658,1.8453,-1.3607,-19.4154,-0.1788,0.8518,0.8254,-0.8582,-3.6997,49.27254878,-122.97662,3.56999993
6.093915,-0.9334,1.4039,-1.2679,-19.4154,-0.1788,0.8518,0.8254,-0.8582,-3.6997,49.27254878,-122.97662,3.56999993
6.096527,-0.9334,1.4039,-1.2679,-17.0033,-0.8756,-1.2395,0.8254,-0.8582,-3.6997,49.27254878,-122.97662,3.56999993
6.110521,-0.2803,4.162,-0.6921,-17.0033,-0.8756,-1.2395,0.8254,-0.8582,-3.6997,49.27254878,-122.97662,3.56999993
6.114129,-0.2803,4.162,-0.6921,-17.0033,-0.8756,-1.2395,0.8254,-0.8582,-3.6997,49.27254878,-122.97662,3.56999993
6.141912,-0.2803,4.162,-0.6921,-17.0033,-0.8756,-1.2395,-0.3879,-1.6942,-1.9515,49.27254878,-122.97662,3.56999993
6.145903,0.7254,3.8886,0.0697,-17.0033,-0.8756,-1.2395,-0.3879,-1.6942,-1.9515,49.27254878,-122.97662,3.56999993
6.151941,0.9245,2.5839,-0.4398,-17.0033,-0.8756,-1.2395,-0.3879,-1.6942,-1.9515,49.27254878,-122.97662,3.56999993
6.167233,2.9215,1.9797,-0.4931,-17.0033,-0.8756,-1.2395,-0.3879,-1.6942,-1.9515,49.27254878,-122.97662,3.56999993
6.170728,2.9215,1.9797,-0.4931,-5.8523,12.1585,-7.4497,-0.3879,-1.6942,-1.9515,49.27254878,-122.97662,3.56999993
6.174129,2.9215,1.9797,-0.4931,-5.8523,12.1585,-7.4497,-0.3879,-1.6942,-1.9515,49.27254878,-122.97662,3.56999993
6.209515,2.9215,1.9797,-0.4931,-5.8523,12.1585,-7.4497,-0.3879,-1.6942,-1.9515,49.27254878,-122.97662,3.56999993
6.214596,2.7816,1.6395,0.0613,-5.8523,12.1585,-7.4497,-0.3879,-1.6942,-1.9515,49.27254878,-122.97662,3.56999993
6.218365,1.1649,1.2553,-0.2805,-5.8523,12.1585,-7.4497,-0.3879,-1.6942,-1.9515,49.27254878,-122.97662,3.56999993
6.220726,1.1649,1.2553,-0.2805,-5.8523,12.1585,-7.4497,-0.1611,-1.1224,-3.2676,49.27254878,-122.97662,3.56999993
6.230688,1.1649,1.2553,-0.2805,17.9271,22.6329,-1.5469,-0.1611,-1.1224,-3.2676,49.27254878,-122.97662,3.56999993
6.235504,0.3762,1.2223,-0.7677,17.9271,22.6329,-1.5469,-0.1611,-1.1224,-3.2676,49.27254878,-122.97662,3.56999993
6.250064,0.3762,1.2223,-0.7677,17.9271,22.6329,-1.5469,-0.1611,-1.1224,-3.2676,49.27254878,-122.97662,3.56999993
6.254102,0.6686,1.0106,0.0311,17.9271,22.6329,-1.5469,-0.1611,-1.1224,-3.2676,49.27254878,-122.97662,3.56999993
6.268411,1.5426,0.8931,-0.4689,17.9271,22.6329,-1.5469,-0.1611,-1.1224,-3.2676,49.27254878,-122.97662,3.56999993
6.271715,1.5426,0.8931,-0.4689,17.9271,22.6329,-1.5469,-0.1611,-1.1224,-3.2676,49.27254878,-122.97662,3.56999993
6.277037,1.5426,0.8931,-0.4689,17.9271,22.6329,-1.5469,0.8853,-1.0116,-3.7433,49.27254878,-122.97662,3.56999993
6.284776,2.2233,0.8112,0.4708,17.9271,22.6329,-1.5469,0.8853,-1.0116,-3.7433,49.27254878,-122.97662,3.56999993
6.296175,1.1505,1.1168,-0.0805,17.9271,22.6329,-1.5469,0.8853,-1.0116,-3.7433,49.27254878,-122.97662,3.56999993
6.297623,1.1505,1.1168,-0.0805,19.607,7.128,-0.4896,0.8853,-1.0116,-3.7433,49.27254878,-122.97662,3.56999993
6.309902,1.1505,1.1168,-0.0805,19.607,7.128,-0.4896,0.8853,-1.0116,-3.7433,49.27254878,-122.97662,3.56999993
6.344907,1.1505,1.1168,-0.0805,19.607,7.128,-0.4896,0.197,1.3562,-0.5354,49.27254878,-122.97662,3.56999993
6.347896,0.1898,2.0153,-0.7027,19.607,7.128,-0.4896,0.197,1.3562,-0.5354,49.27254878,-122.97662,3.56999993
6.349838,-0.4271,1.4844,-0.656,19.607,7.128,-0.4896,0.197,1.3562,-0.5354,49.27254878,-122.97662,3.56999993
6.365793,-0.4271,1.4844,-0.656,22.4142,4.583,1.1596,0.197,1.3562,-0.5354,49.27254878,-122.97662,3.56999993
6.368405,-0.7762,0.8956,-0.6393,22.4142,4.583,1.1596,0.197,1.3562,-0.5354,49.27254878,-122.97662,3.56999993
6.370344,-0.7762,0.8956,-0.6393,22.4142,4.583,1.1596,0.197,1.3562,-0.5354,49.27254878,-122.97662,3.56999993
6.389013,-0.7762,0.8956,-0.6393,22.4142,4.583,1.1596,0.197,1.3562,-0.5354,49.27254878,-122.97662,3.56999993
6.391667,-1.2984,0.7995,-0.9295,22.4142,4.583,1.1596,0.197,1.3562,-0.5354,49.27254878,-122.97662,3.56999993
6.401617,-1.3565,0.7223,-0.7428,22.4142,4.583,1.1596,0.197,1.3562,-0.5354,49.27254878,-122.97662,3.56999993
6.413109,-1.3565,0.7223,-0.7428,22.4142,4.583,1.1596,-1.0809,1.5977,5.027,49.27254878,-122.97662,3.56999993
6.417541,-1.5654,0.6,-0.2991,22.4142,4.583,1.1596,-1.0809,1.5977,5.027,49.27254878,-122.97662,3.56999993
6.436561,-0.8455,0.5052,-0.2705,22.4142,4.583,1.1596,-1.0809,1.5977,5.027,49.27254878,-122.97662,3.56999993
6.440544,-0.8455,0.5052,-0.2705,1.9652,7.7699,-4.2194,-1.0809,1.5977,5.027,49.27254878,-122.97662,3.56999993
6.45037,-0.8455,0.5052,-0.2705,1.9652,7.7699,-4.2194,-1.0809,1.5977,5.027,49.27254878,-122.97662,3.56999993
6.480138,-0.8455,0.5052,-0.2705,1.9652,7.7699,-4.2194,-1.1855,1.4624,8.0293,49.27254878,-122.97662,3.56999993
6.484014,-0.9199,0.2961,-0.4018,1.9652,7.7699,-4.2194,-1.1855,1.4624,8.0293,49.27254878,-122.97662,3.56999993
6.486253,-1.0056,0.3622,-0.539,1.9652,7.7699,-4.2194,-1.1855,1.4624,8.0293,49.27254878,-122.97662,3.56999993
6.499782,-1.3182,0.628,-0.2401,1.9652,7.7699,-4.2194,-1.1855,1.4624,8.0293,49.27254878,-122.97662,3.56999993
6.503793,-1.3182,0.628,-0.2401,-9.2678,-1.8635,-2.5459,-1.1855,1.4624,8.0293,49.27254878,-122.97662,3.56999993
6.513032,-1.3182,0.628,-0.2401,-9.2678,-1.8635,-2.5459,-1.1855,1.4624,8.0293,49.27254878,-122.97662,3.56999993
6.51658,-2.1408,1.2243,-0.7322,-9.2678,-1.8635,-2.5459,-1.1855,1.4624,8.0293,49.27254878,-122.97662,3.56999993
6.54827,-2.5655,1.8693,-0.5087,-9.2678,-1.8635,-2.5459,-1.1855,1.4624,8.0293,49.27254878,-122.97662,3.56999993
6.553589,-2.5655,1.8693,-0.5087,-9.2678,-1.8635,-2.5459,-1.1423,0.4975,5.8056,49.27254878,-122.97662,3.56999993
6.556648,-2.4224,1.0513,-0.4487,-9.2678,-1.8635,-2.5459,-1.1423,0.4975,5.8056,49.27254878,-122.97662,3.56999993
6.568,-2.4224,1.0513,-0.4487,-13.2694,-3.5574,-2.3059,-1.1423,0.4975,5.8056,49.27254878,-122.97662,3.56999993
6.571755,-2.2429,0.3458,-0.0795,-13.2694,-3.5574,-2.3059,-1.1423,0.4975,5.8056,49.27254878,-122.97662,3.56999993
6.574224,-2.2429,0.3458,-0.0795,-13.2694,-3.5574,-2.3059,-1.1423,0.4975,5.8056,49.27254878,-122.97662,3.56999993
6.576198,-2.2429,0.3458,-0.0795,-13.2694,-3.5574,-2.3059,-1.1423,0.4975,5.8056,49.27254878,-122.97662,3.56999993
6.578984,-2.2429,0.3458,-0.0795,-13.2694,-3.5574,-2.3059,-1.1423,0.4975,5.8056,49.27254878,-122.97662,3.56999993
6.602268,-1.9123,0.0858,0.3046,-13.2694,-3.5574,-2.3059,-1.1423,0.4975,5.8056,49.27254878,-122.97662,3.56999993
6.615503,-0.8227,0.4764,-0.3202,-13.2694,-3.5574,-2.3059,-1.1423,0.4975,5.8056,49.27254878,-122.97662,3.56999993
6.619289,-0.8227,0.4764,-0.3202,-13.2694,-3.5574,-2.3059,0.6338,-0.2859,-2.2615,49.27254878,-122.97662,3.56999993
6.635224,-0.8227,0.4764,-0.3202,-25.9117,2.724,-2.281,0.6338,-0.2859,-2.2615,49.27254878,-122.97662,3.56999993
6.639227,-0.6873,4.9178,-0.8787,-25.9117,2.724,-2.281,0.6338,-0.2859,-2.2615,49.27254878,-122.97662,3.56999993
6.650338,-0.6873,4.9178,-0.8787,-25.9117,2.724,-2.281,0.6338,-0.2859,-2.2615,49.27254878,-122.97662,3.56999993
6.65368,-3.2213,-0.2239,-0.8871,-25.9117,2.724,-2.281,0.6338,-0.2859,-2.2615,49.27254878,-122.97662,3.56999993
6.670414,-3.0338,-1.5165,-0.484,-25.9117,2.724,-2.281,0.6338,-0.2859,-2.2615,49.27254878,-122.97662,3.56999993
6.684819,-3.0338,-1.5165,-0.484,-25.9117,2.724,-2.281,1.7776,1.2095,-5.9851,49.27254878,-122.97662,3.56999993
6.688533,-1.2077,2.5537,-0.3076,-25.9117,2.724,-2.281,1.7776,1.2095,-5.9851,49.27254878,-122.97662,3.56999993
6.703088,-1.2077,2.5537,-0.3076,-11.8675,8.6589,1.4281,1.7776,1.2095,-5.9851,49.27254878,-122.97662,3.56999993
6.706108,-1.2493,1.0449,-1.158,-11.8675,8.6589,1.4281,1.7776,1.2095,-5.9851,49.27254878,-122.97662,3.56999993
6.71012,-1.2493,1.0449,-1.158,-11.8675,8.6589,1.4281,1.7776,1.2095,-5.9851,49.27254878,-122.97662,3.56999993
6.750784,-1.2493,1.0449,-1.158,-11.8675,8.6589,1.4281,1.7776,1.2095,-5.9851,49.27254878,-122.97662,3.56999993
6.753559,-1.3463,2.0245,-1.5682,-11.8675,8.6589,1.4281,1.7776,1.2095,-5.9851,49.27254878,-122.97662,3.56999993
6.75567,0.3826,4.4556,-0.4983,-11.8675,8.6589,1.4281,1.7776,1.2095,-5.9851,49.27254878,-122.97662,3.56999993
6.757837,0.3826,4.4556,-0.4983,-11.8675,8.6589,1.4281,0.0945,-1.798,-2.4971,49.27254878,-122.97662,3.56999993
6.77145,0.3826,4.4556,-0.4983,-17.8621,-4.6688,-6.4427,0.0945,-1.798,-2.4971,49.27254878,-122.97662,3.56999993
6.775568,0.9695,3.7232,0.0697,-17.8621,-4.6688,-6.4427,0.0945,-1.798,-2.4971,49.27254878,-122.97662,3.56999993
6.778519,0.9695,3.7232,0.0697,-17.8621,-4.6688,-6.4427,0.0945,-1.798,-2.4971,49.27254878,-122.97662,3.56999993
6.800105,1.543,2.6216,-0.7082,-17.8621,-4.6688,-6.4427,0.0945,-1.798,-2.4971,49.27254878,-122.97662,3.56999993
6.804768,3.3492,1.8131,-0.2165,-17.8621,-4.6688,-6.4427,0.0945,-1.798,-2.4971,49.27254878,-122.97662,3.56999993
6.807655,3.3492,1.8131,-0.2165,-17.8621,-4.6688,-6.4427,0.0945,-1.798,-2.4971,49.27254878,-122.97662,3.56999993
6.819021,3.3492,1.8131,-0.2165,-17.8621,-4.6688,-6.4427,-0.0869,-2.608,-1.9775,49.27254878,-122.97662,3.56999993
6.839483,2.18,1.5784,0.1895,-17.8621,-4.6688,-6.4427,-0.0869,-2.608,-1.9775,49.27254878,-122.97662,3.56999993
6.843817,0.8301,1.1107,-0.1794,-17.8621,-4.6688,-6.4427,-0.0869,-2.608,-1.9775,49.27254878,-122.97662,3.56999993
6.847492,0.8301,1.1107,-0.1794,6.1499,24.796,-3.7311,-0.0869,-2.608,-1.9775,49.27254878,-122.97662,3.56999993
6.8576,0.8301,1.1107,-0.1794,6.1499,24.796,-3.7311,-0.0869,-2.608,-1.9775,49.27254878,-122.97662,3.56999993
6.883511,0.4157,1.4117,-0.7424,6.1499,24.796,-3.7311,-0.0869,-2.608,-1.9775,49.27254878,-122.97662,3.56999993
6.887484,1.3947,1.3488,-0.0083,6.1499,24.796,-3.7311,-0.0869,-2.608,-1.9775,49.27254878,-122.97662,3.56999993
6.890744,1.3947,1.3488,-0.0083,6.1499,24.796,-3.7311,1.1137,-0.934,-4.0502,49.27254878,-122.97662,3.56999993
6.906525,2.9165,1.0141,0.1649,6.1499,24.796,-3.7311,1.1137,-0.934,-4.0502,49.27254878,-122.97662,3.56999993
6.910774,2.9165,1.0141,0.1649,26.8235,9.3199,-0.0757,1.1137,-0.934,-4.0502,49.27254878,-122.97662,3.56999993
6.914217,2.9165,1.0141,0.1649,26.8235,9.3199,-0.0757,1.1137,-0.934,-4.0502,49.27254878,-122.97662,3.56999993
6.936425,1.938,0.8049,0.4784,26.8235,9.3199,-0.0757,1.1137,-0.934,-4.0502,49.27254878,-122.97662,3.56999993
6.940943,1.938,0.8049,0.4784,26.8235,9.3199,-0.0757,1.1137,-0.934,-4.0502,49.27254878,-122.97662,3.56999993
6.950196,0.6777,1.4811,-0.2789,26.8235,9.3199,-0.0757,1.1137,-0.934,-4.0502,49.27254878,-122.97662,3.56999993
6.95565,0.6777,1.4811,-0.2789,26.8235,9.3199,-0.0757,0.6167,0.1132,-0.9723,49.27254878,-122.97662,3.56999993
6.969946,0.6777,1.4811,-0.2789,26.8235,9.3199,-0.0757,0.6167,0.1132,-0.9723,49.27254878,-122.97662,3.56999993
6.972616,-0.2661,2.521,-1.2445,26.8235,9.3199,-0.0757,0.6167,0.1132,-0.9723,49.27254878,-122.97662,3.56999993
6.974804,-0.2661,2.521,-1.2445,23.4643,6.1294,1.0791,0.6167,0.1132,-0.9723,49.27254878,-122.97662,3.56999993
6.977034,-0.9137,1.3109,-0.5225,23.4643,6.1294,1.0791,0.6167,0.1132,-0.9723,49.27254878,-122.97662,3.56999993
7.000418,-1.0323,1.1828,-0.6461,23.4643,6.1294,1.0791,0.6167,0.1132,-0.9723,49.27254878,-122.97662,3.56999993
7.002388,-1.0323,1.1828,-0.6461,23.4643,6.1294,1.0791,0.6167,0.1132,-0.9723,49.27255002,-122.976663,2.6400001
7.016802,-1.4036,0.681,-0.9069,23.4643,6.1294,1.0791,0.6167,0.1132,-0.9723,49.27255002,-122.976663,2.6400001
7.023005,-1.4036,0.681,-0.9069,23.4643,6.1294,1.0791,-0.8204,1.4584,3.7543,49.27255002,-122.976663,2.6400001
7.04248,-1.4036,0.681,-0.9069,7.258,10.3427,-3.3422,-0.8204,1.4584,3.7543,49.27255002,-122.976663,2.6400001
7.044706,-1.1975,0.5089,-0.5152,7.258,10.3427,-3.3422,-0.8204,1.4584,3.7543,49.27255002,-122.976663,2.6400001
7.052289,-1.1975,0.5089,-0.5152,7.258,10.3427,-3.3422,-0.8204,1.4584,3.7543,49.27255002,-122.976663,2.6400001
7.084897,-1.3071,0.3536,-0.4326,7.258,10.3427,-3.3422,-0.8204,1.4584,3.7543,49.27255002,-122.976663,2.6400001
7.087605,-1.2927,-0.0802,-0.844,7.258,10.3427,-3.3422,-0.8204,1.4584,3.7543,49.27255002,-122.976663,2.6400001
7.092107,-1.2927,-0.0802,-0.844,7.258,10.3427,-3.3422,-1.0711,1.7079,7.3809,49.27255002,-122.976663,2.6400001
7.109939,-1.3082,-0.2325,-0.6108,7.258,10.3427,-3.3422,-1.0711,1.7079,7.3809,49.27255002,-122.976663,2.6400001
7.115001,-1.3082,-0.2325,-0.6108,7.258,10.3427,-3.3422,-1.0711,1.7079,7.3809,49.27255002,-122.976663,2.6400001
7.118416,-1.361,0.1037,-0.1897,7.258,10.3427,-3.3422,-1.0711,1.7079,7.3809,49.27255002,-122.976663,2.6400001
7.121605,-1.361,0.1037,-0.1897,-8.3069,-0.6383,-4.0123,-1.0711,1.7079,7.3809,49.27255002,-122.976663,2.6400001
7.124468,-1.361,0.1037,-0.1897,-8.3069,-0.6383,-4.0123,-1.0711,1.7079,7.3809,49.27255002,-122.976663,2.6400001
7.13557,-2.0776,0.702,-0.3873,-8.3069,-0.6383,-4.0123,-1.0711,1.7079,7.3809,49.27255002,-122.976663,2.6400001
7.149963,-2.2174,1.8952,-0.4284,-8.3069,-0.6383,-4.0123,-1.0711,1.7079,7.3809,49.27255002,-122.976663,2.6400001
7.157558,-2.2174,1.8952,-0.4284,-8.3069,-0.6383,-4.0123,-0.8262,0.7446,6.6856,49.27255002,-122.976663,2.6400001
7.170625,-2.4328,1.6881,-0.3815,-8.3069,-0.6383,-4.0123,-0.8262,0.7446,6.6856,49.27255002,-122.976663,2.6400001
7.174126,-2.4328,1.6881,-0.3815,-8.3069,-0.6383,-4.0123,-0.8262,0.7446,6.6856,49.27255002,-122.976663,2.6400001
7.177051,-2.4328,1.6881,-0.3815,-13.9142,-8.8951,-3.27,-0.8262,0.7446,6.6856,49.27255002,-122.976663,2.6400001
7.218348,-1.9738,0.6634,-0.0445,-13.9142,-8.8951,-3.27,-0.8262,0.7446,6.6856,49.27255002,-122.976663,2.6400001
7.221601,-1.6796,0.4042,0.0749,-13.9142,-8.8951,-3.27,-0.8262,0.7446,6.6856,49.27255002,-122.976663,2.6400001
7.225436,-1.6796,0.4042,0.0749,-13.9142,-8.8951,-3.27,0.4765,0.031,-1.2368,49.27255002,-122.976663,2.6400001
7.245312,-1.5948,0.1152,0.2725,-13.9142,-8.8951,-3.27,0.4765,0.031,-1.2368,49.27255002,-122.976663,2.6400001
7.248724,-0.0467,2.1769,-0.741,-13.9142,-8.8951,-3.27,0.4765,0.031,-1.2368,49.27255002,-122.976663,2.6400001
7.251067,-0.0467,2.1769,-0.741,-24.5215,4.6665,-1.9363,0.4765,0.031,-1.2368,49.27255002,-122.976663,2.6400001
7.253692,-0.0467,2.1769,-0.741,-24.5215,4.6665,-1.9363,0.4765,0.031,-1.2368,49.27255002,-122.976663,2.6400001
7.285616,-1.1664,4.5767,0.3184,-24.5215,4.6665,-1.9363,0.4765,0.031,-1.2368,49.27255002,-122.976663,2.6400001
7.290582,-3.9661,-2.1096,-1.0465,-24.5215,4.6665,-1.9363,0.4765,0.031,-1.2368,49.27255002,-122.976663,2.6400001
7.29515,-3.9661,-2.1096,-1.0465,-24.5215,4.6665,-1.9363,0.4765,0.031,-1.2368,49.27255002,-122.976663,2.6400001
7.299314,-3.9661,-2.1096,-1.0465,-24.5215,4.6665,-1.9363,1.4708,1.3123,-5.8223,49.27255002,-122.976663,2.6400001
7.310832,-3.9661,-2.1096,-1.0465,-24.5215,4.6665,-1.9363,1.4708,1.3123,-5.8223,49.27255002,-122.976663,2.6400001
7.315676,-1.9339,0.2094,-0.871,-24.5215,4.6665,-1.9363,1.4708,1.3123,-5.8223,49.27255002,-122.976663,2.6400001
7.319301,-1.9339,0.2094,-0.871,-11.8651,-0.1242,1.2175,1.4708,1.3123,-5.8223,49.27255002,-122.976663,2.6400001
7.334753,-1.1437,2.5263,-1.2412,-11.8651,-0.1242,1.2175,1.4708,1.3123,-5.8223,49.27255002,-122.976663,2.6400001
7.339757,-1.1437,2.5263,-1.2412,-11.8651,-0.1242,1.2175,1.4708,1.3123,-5.8223,49.27255002,-122.976663,2.6400001
7.349383,-1.0291,1.186,-1.3072,-11.8651,-0.1242,1.2175,1.4708,1.3123,-5.8223,49.27255002,-122.976663,2.6400001
7.360796,-1.0291,1.186,-1.3072,-11.8651,-0.1242,1.2175,0.4937,-1.866,-3.2934,49.27255002,-122.976663,2.6400001
7.371273,-1.0291,1.186,-1.3072,-11.8651,-0.1242,1.2175,0.4937,-1.866,-3.2934,49.27255002,-122.976663,2.6400001
7.374543,-0.4869,3.6909,-1.1047,-11.8651,-0.1242,1.2175,0.4937,-1.866,-3.2934,49.27255002,-122.976663,2.6400001
7.381754,1.1177,4.4824,0.0097,-11.8651,-0.1242,1.2175,0.4937,-1.866,-3.2934,49.27255002,-122.976663,2.6400001
7.384717,1.1177,4.4824,0.0097,-18.7187,3.9197,-2.6459,0.4937,-1.866,-3.2934,49.27255002,-122.976663,2.6400001
7.413599,0.7687,2.8462,-0.4734,-18.7187,3.9197,-2.6459,0.4937,-1.866,-3.2934,49.27255002,-122.976663,2.6400001
7.429056,0.7687,2.8462,-0.4734,-18.7187,3.9197,-2.6459,-0.3215,-2.6627,-1.6714,49.27255002,-122.976663,2.6400001
7.433861,2.5424,2.1241,-0.8329,-18.7187,3.9197,-2.6459,-0.3215,-2.6627,-1.6714,49.27255002,-122.976663,2.6400001
7.455938,2.5424,2.1241,-0.8329,2.2907,21.3196,-6.3377,-0.3215,-2.6627,-1.6714,49.27255002,-122.976663,2.6400001
7.460574,2.993,1.9679,-0.0673,2.2907,21.3196,-6.3377,-0.3215,-2.6627,-1.6714,49.27255002,-122.976663,2.6400001
7.463173,2.993,1.9679,-0.0673,2.2907,21.3196,-6.3377,-0.3215,-2.6627,-1.6714,49.27255002,-122.976663,2.6400001
7.468545,2.993,1.9679,-0.0673,2.2907,21.3196,-6.3377,-0.3215,-2.6627,-1.6714,49.27255002,-122.976663,2.6400001
7.471524,1.4806,1.47,0.0593,2.2907,21.3196,-6.3377,-0.3215,-2.6627,-1.6714,49.27255002,-122.976663,2.6400001
7.486648,0.5952,1.3851,-0.5724,2.2907,21.3196,-6.3377,-0.3215,-2.6627,-1.6714,49.27255002,-122.976663,2.6400001
7.496498,0.5952,1.3851,-0.5724,2.2907,21.3196,-6.3377,0.7834,-1.2498,-4.5739,49.27255002,-122.976663,2.6400001
7.510391,1.0915,1.3053,0.1181,2.2907,21.3196,-6.3377,0.7834,-1.2498,-4.5739,49.27255002,-122.976663,2.6400001
7.513474,1.0915,1.3053,0.1181,2.2907,21.3196,-6.3377,0.7834,-1.2498,-4.5739,49.27255002,-122.976663,2.6400001
7.516483,1.9323,0.7142,-0.4183,2.2907,21.3196,-6.3377,0.7834,-1.2498,-4.5739,49.27255002,-122.976663,2.6400001
7.519371,1.9323,0.7142,-0.4183,26.1655,14.6903,-2.4109,0.7834,-1.2498,-4.5739,49.27255002,-122.976663,2.6400001
7.53965,1.9323,0.7142,-0.4183,26.1655,14.6903,-2.4109,0.7834,-1.2498,-4.5739,49.27255002,-122.976663,2.6400001
7.541721,2.0777,0.2436,0.6936,26.1655,14.6903,-2.4109,0.7834,-1.2498,-4.5739,49.27255002,-122.976663,2.6400001
7.564875,2.0777,0.2436,0.6936,26.1655,14.6903,-2.4109,0.7553,-0.3457,-1.5007,49.27255002,-122.976663,2.6400001
7.568313,1.0953,0.9301,-0.0739,26.1655,14.6903,-2.4109,0.7553,-0.3457,-1.5007,49.27255002,-122.976663,2.6400001
7.570585,1.0953,0.9301,-0.0739,26.1655,14.6903,-2.4109,0.7553,-0.3457,-1.5007,49.27255002,-122.976663,2.6400001
7.583687,0.3893,2.046,-0.4822,26.1655,14.6903,-2.4109,0.7553,-0.3457,-1.5007,49.27255002,-122.976663,2.6400001
7.587086,0.3893,2.046,-0.4822,18.6606,6.0612,-0.6376,0.7553,-0.3457,-1.5007,49.27255002,-122.976663,2.6400001
7.618205,-0.4827,1.6937,-0.9329,18.6606,6.0612,-0.6376,0.7553,-0.3457,-1.5007,49.27255002,-122.976663,2.6400001
7.623573,-0.7516,1.1449,-0.7551,18.6606,6.0612,-0.6376,0.7553,-0.3457,-1.5007,49.27255002,-122.976663,2.6400001
7.633072,-0.7516,1.1449,-0.7551,18.6606,6.0612,-0.6376,-0.6283,1.5833,2.6815,49.27255002,-122.976663,2.6400001
7.657827,-0.7516,1.1449,-0.7551,18.6606,6.0612,-0.6376,-0.6283,1.5833,2.6815,49.27255002,-122.976663,2.6400001
7.661054,-1.2151,1.0598,-0.8446,18.6606,6.0612,-0.6376,-0.6283,1.5833,2.6815,49.27255002,-122.976663,2.6400001
7.663864,-1.2151,1.0598,-0.8446,18.6606,6.0612,-0.6376,-0.6283,1.5833,2.6815,49.27255002,-122.976663,2.6400001
7.666402,-1.6192,0.8221,-0.7633,18.6606,6.0612,-0.6376,-0.6283,1.5833,2.6815,49.27255002,-122.976663,2.6400001
7.669248,-1.6192,0.8221,-0.7633,16.2585,6.5209,0.905,-0.6283,1.5833,2.6815,49.27255002,-122.976663,2.6400001
7.671713,-1.6064,0.7949,-0.1211,16.2585,6.5209,0.905,-0.6283,1.5833,2.6815,49.27255002,-122.976663,2.6400001
7.699098,-1.6064,0.7949,-0.1211,16.2585,6.5209,0.905,-1.0496,1.5606,6.7916,49.27255002,-122.976663,2.6400001
7.703167,-0.8478,0.4879,-0.251,16.2585,6.5209,0.905,-1.0496,1.5606,6.7916,49.27255002,-122.976663,2.6400001
7.710494,-0.8478,0.4879,-0.251,16.2585,6.5209,0.905,-1.0496,1.5606,6.7916,49.27255002,-122.976663,2.6400001
7.714054,-1.0254,0.5823,-0.6671,16.2585,6.5209,0.905,-1.0496,1.5606,6.7916,49.27255002,-122.976663,2.6400001
7.720652,-1.0254,0.5823,-0.6671,-6.4579,2.8917,-5.2835,-1.0496,1.5606,6.7916,49.27255002,-122.976663,2.6400001
7.751067,-1.0413,0.7516,-0.6203,-6.4579,2.8917,-5.2835,-1.0496,1.5606,6.7916,49.27255002,-122.976663,2.6400001
7.754463,-1.6152,0.6957,-0.427,-6.4579,2.8917,-5.2835,-1.0496,1.5606,6.7916,49.27255002,-122.976663,2.6400001
7.76727,-1.6152,0.6957,-0.427,-6.4579,2.8917,-5.2835,-1.2319,1.4714,7.4045,49.27255002,-122.976663,2.6400001
7.771327,-1.6152,0.6957,-0.427,-6.4579,2.8917,-5.2835,-1.2319,1.4714,7.4045,49.27255002,-122.976663,2.6400001
7.774315,-2.5872,1.1029,-0.6607,-6.4579,2.8917,-5.2835,-1.2319,1.4714,7.4045,49.27255002,-122.976663,2.6400001
7.787426,-2.4577,1.5675,-0.447,-6.4579,2.8917,-5.2835,-1.2319,1.4714,7.4045,49.27255002,-122.976663,2.6400001
7.790534,-2.4577,1.5675,-0.447,-10.9759,-2.4176,-1.8512,-1.2319,1.4714,7.4045,49.27255002,-122.976663,2.6400001
7.817703,-2.389,0.8044,-0.4311,-10.9759,-2.4176,-1.8512,-1.2319,1.4714,7.4045,49.27255002,-122.976663,2.6400001
7.829785,-2.389,0.8044,-0.4311,-10.9759,-2.4176,-1.8512,-1.2319,1.4714,7.4045,49.27255002,-122.976663,2.6400001
7.832072,-2.1356,0.4434,-0.0394,-10.9759,-2.4176,-1.8512,-1.2319,1.4714,7.4045,49.27255002,-122.976663,2.6400001
7.834252,-2.1356,0.4434,-0.0394,-10.9759,-2.4176,-1.8512,-1.2319,1.4714,7.4045,49.27255002,-122.976663,2.6400001
7.836213,-2.1356,0.4434,-0.0394,-10.9759,-2.4176,-1.8512,-0.0041,0.0504,0.9714,49.27255002,-122.976663,2.6400001
7.851252,-1.736,0.3737,0.2226,-10.9759,-2.4176,-1.8512,-0.0041,0.0504,0.9714,49.27255002,-122.976663,2.6400001
7.854155,-1.736,0.3737,0.2226,-10.9759,-2.4176,-1.8512,-0.0041,0.0504,0.9714,49.27255002,-122.976663,2.6400001
7.856199,-1.736,0.3737,0.2226,-22.8724,2.1182,-3.6384,-0.0041,0.0504,0.9714,49.27255002,-122.976663,2.6400001
7.868309,-0.9567,1.8115,-0.4422,-22.8724,2.1182,-3.6384,-0.0041,0.0504,0.9714,49.27255002,-122.976663,2.6400001
7.884082,-1.1982,3.5957,-0.0156,-22.8724,2.1182,-3.6384,-0.0041,0.0504,0.9714,49.27255002,-122.976663,2.6400001
7.90318,-1.1982,3.5957,-0.0156,-22.8724,2.1182,-3.6384,1.4106,0.7097,-5.7681,49.27255002,-122.976663,2.6400001
7.914175,-1.1982,3.5957,-0.0156,-22.8724,2.1182,-3.6384,1.4106,0.7097,-5.7681,49.27255002,-122.976663,2.6400001
7.91896,-3.3466,-1.3682,-1.051,-22.8724,2.1182,-3.6384,1.4106,0.7097,-5.7681,49.27255002,-122.976663,2.6400001
7.931254,-2.3054,-0.2521,-0.832,-22.8724,2.1182,-3.6384,1.4106,0.7097,-5.7681,49.27255002,-122.976663,2.6400001
7.9349,-2.3054,-0.2521,-0.832,-20.3516,-2.5932,0.607,1.4106,0.7097,-5.7681,49.27255002,-122.976663,2.6400001
7.952794,-1.1323,2.309,-0.823,-20.3516,-2.5932,0.607,1.4106,0.7097,-5.7681,49.27255002,-122.976663,2.6400001
7.975567,-1.1323,2.309,-0.823,-20.3516,-2.5932,0.607,0.6811,-1.1504,-3.8239,49.27255002,-122.976663,2.6400001
7.97899,-1.0816,1.1708,-1.2886,-20.3516,-2.5932,0.607,0.6811,-1.1504,-3.8239,49.27255002,-122.976663,2.6400001
7.981351,-1.0816,1.1708,-1.2886,-20.3516,-2.5932,0.607,0.6811,-1.1504,-3.8239,49.27255002,-122.976663,2.6400001
7.983956,-0.9192,2.4956,-1.3342,-20.3516,-2.5932,0.607,0.6811,-1.1504,-3.8239,49.27255002,-122.976663,2.6400001
7.991685,-0.9192,2.4956,-1.3342,-17.6082,1.2003,-3.1771,0.6811,-1.1504,-3.8239,49.27255002,-122.976663,2.6400001
8.010608,0.2717,4.8384,-0.1484,-17.6082,1.2003,-3.1771,0.6811,-1.1504,-3.8239,49.27255002,-122.976663,2.6400001
8.0127,0.2717,4.8384,-0.1484,-17.6082,1.2003,-3.1771,0.6811,-1.1504,-3.8239,49.27255308,-122.9766997,2.54999995
8.038329,0.6708,3.4066,0.0479,-17.6082,1.2003,-3.1771,0.6811,-1.1504,-3.8239,49.27255308,-122.9766997,2.54999995
8.043331,0.6708,3.4066,0.0479,-17.6082,1.2003,-3.1771,-0.3906,-1.9016,-1.7383,49.27255308,-122.9766997,2.54999995
8.047819,1.3684,2.3436,-0.9604,-17.6082,1.2003,-3.1771,-0.3906,-1.9016,-1.7383,49.27255308,-122.9766997,2.54999995
8.061941,1.3684,2.3436,-0.9604,-17.6082,1.2003,-3.1771,-0.3906,-1.9016,-1.7383,49.27255308,-122.9766997,2.54999995
8.064561,3.4103,1.8983,-0.2142,-17.6082,1.2003,-3.1771,-0.3906,-1.9016,-1.7383,49.27255308,-122.9766997,2.54999995
8.066814,3.4103,1.8983,-0.2142,-4.4502,15.7988,-7.2544,-0.3906,-1.9016,-1.7383,49.27255308,-122.9766997,2.54999995
8.069113,3.4103,1.8983,-0.2142,-4.4502,15.7988,-7.2544,-0.3906,-1.9016,-1.7383,49.27255308,-122.9766997,2.54999995
8.08297,2.1753,1.6478,-0.0682,-4.4502,15.7988,-7.2544,-0.3906,-1.9016,-1.7383,49.27255308,-122.9766997,2.54999995
8.10606,2.1753,1.6478,-0.0682,-4.4502,15.7988,-7.2544,0.1452,-1.8605,-3.67,49.27255308,-122.9766997,2.54999995
8.108458,0.5939,1.5487,-0.5993,-4.4502,15.7988,-7.2544,0.1452,-1.8605,-3.67,49.27255308,-122.9766997,2.54999995
8.109922,0.5939,1.5487,-0.5993,-4.4502,15.7988,-7.2544,0.1452,-1.8605,-3.67,49.27255308,-122.9766997,2.54999995
8.125547,0.979,1.6449,0.0106,-4.4502,15.7988,-7.2544,0.1452,-1.8605,-3.67,49.27255308,-122.9766997,2.54999995
8.127084,0.979,1.6449,0.0106,21.1666,20.5923,-2.0571,0.1452,-1.8605,-3.67,49.27255308,-122.9766997,2.54999995
8.151064,1.0622,1.0676,-0.4549,21.1666,20.5923,-2.0571,0.1452,-1.8605,-3.67,49.27255308,-122.9766997,2.54999995
8.165015,2.2692,0.7721,-0.088,21.1666,20.5923,-2.0571,0.1452,-1.8605,-3.67,49.27255308,-122.9766997,2.54999995
8.170775,2.2692,0.7721,-0.088,21.1666,20.5923,-2.0571,0.1452,-1.8605,-3.67,49.27255308,-122.9766997,2.54999995
8.173951,2.2692,0.7721,-0.088,21.1666,20.5923,-2.0571,0.7724,-1.1409,-3.5308,49.27255308,-122.9766997,2.54999995
8.189424,2.115,0.83,0.3626,21.1666,20.5923,-2.0571,0.7724,-1.1409,-3.5308,49.27255308,-122.9766997,2.54999995
8.192618,2.115,0.83,0.3626,21.1666,20.5923,-2.0571,0.7724,-1.1409,-3.5308,49.27255308,-122.9766997,2.54999995
8.194789,0.72,1.0224,-0.1271,21.1666,20.5923,-2.0571,0.7724,-1.1409,-3.5308,49.27255308,-122.9766997,2.54999995
8.197757,0.72,1.0224,-0.1271,19.0828,9.6882,-0.6167,0.7724,-1.1409,-3.5308,49.27255308,-122.9766997,2.54999995
8.217722,-0.1021,1.9947,-0.9743,19.0828,9.6882,-0.6167,0.7724,-1.1409,-3.5308,49.27255308,-122.9766997,2.54999995
8.241227,-0.1021,1.9947,-0.9743,19.0828,9.6882,-0.6167,-0.1443,1.4367,0.3859,49.27255308,-122.9766997,2.54999995
8.247446,-0.8072,1.344,-0.5988,19.0828,9.6882,-0.6167,-0.1443,1.4367,0.3859,49.27255308,-122.9766997,2.54999995
8.251446,-0.8072,1.344,-0.5988,19.0828,9.6882,-0.6167,-0.1443,1.4367,0.3859,49.27255308,-122.9766997,2.54999995
8.255319,-0.9526,0.8226,-0.6928,19.0828,9.6882,-0.6167,-0.1443,1.4367,0.3859,49.27255308,-122.9766997,2.54999995
8.269877,-0.9526,0.8226,-0.6928,23.2267,4.2441,1.0142,-0.1443,1.4367,0.3859,49.27255308,-122.9766997,2.54999995
8.285808,-1.1974,0.683,-0.6416,23.2267,4.2441,1.0142,-0.1443,1.4367,0.3859,49.27255308,-122.9766997,2.54999995
8.309219,-1.1974,0.683,-0.6416,23.2267,4.2441,1.0142,-1.3663,1.7701,6.0507,49.27255308,-122.9766997,2.54999995
8.313136,-1.3777,0.7266,-0.5943,23.2267,4.2441,1.0142,-1.3663,1.7701,6.0507,49.27255308,-122.9766997,2.54999995
8.315757,-1.3777,0.7266,-0.5943,23.2267,4.2441,1.0142,-1.3663,1.7701,6.0507,49.27255308,-122.9766997,2.54999995
8.318351,-1.454,0.6386,-0.4249,23.2267,4.2441,1.0142,-1.3663,1.7701,6.0507,49.27255308,-122.9766997,2.54999995
8.329244,-1.454,0.6386,-0.4249,-0.6923,6.5209,-5.2167,-1.3663,1.7701,6.0507,49.27255308,-122.9766997,2.54999995
8.332837,-1.209,0.382,-0.6643,-0.6923,6.5209,-5.2167,-1.3663,1.7701,6.0507,49.27255308,-122.9766997,2.54999995
8.353036,-1.3977,0.1023,-1.1009,-0.6923,6.5209,-5.2167,-1.3663,1.7701,6.0507,49.27255308,-122.9766997,2.54999995
8.369683,-1.3977,0.1023,-1.1009,-0.6923,6.5209,-5.2167,-1.3663,1.7701,6.0507,49.27255308,-122.9766997,2.54999995
8.373833,-1.2213,0.0303,-0.402,-0.6923,6.5209,-5.2167,-1.3663,1.7701,6.0507,49.27255308,-122.9766997,2.54999995
8.377429,-1.2213,0.0303,-0.402,-0.6923,6.5209,-5.2167,-1.3663,1.7701,6.0507,49.27255308,-122.9766997,2.54999995
8.380347,-1.2213,0.0303,-0.402,-0.6923,6.5209,-5.2167,-1.1267,1.103,8.1624,49.27255308,-122.9766997,2.54999995
8.396137,-1.6999,0.1264,-0.1187,-0.6923,6.5209,-5.2167,-1.1267,1.103,8.1624,49.27255308,-122.9766997,2.54999995
8.399758,-1.6999,0.1264,-0.1187,-10.6146,-2.526,-3.4902,-1.1267,1.103,8.1624,49.27255308,-122.9766997,2.54999995
8.412746,-2.0363,1.1868,-0.4248,-10.6146,-2.526,-3.4902,-1.1267,1.103,8.1624,49.27255308,-122.9766997,2.54999995
8.431401,-2.0815,2.3642,-0.3468,-10.6146,-2.526,-3.4902,-1.1267,1.103,8.1624,49.27255308,-122.9766997,2.54999995
8.444192,-2.0815,2.3642,-0.3468,-10.6146,-2.526,-3.4902,-0.4363,0.5058,4.937,49.27255308,-122.9766997,2.54999995
8.451298,-2.1328,1.0741,-0.3278,-10.6146,-2.526,-3.4902,-0.4363,0.5058,4.937,49.27255308,-122.9766997,2.54999995
8.454228,-2.1328,1.0741,-0.3278,-10.6146,-2.526,-3.4902,-0.4363,0.5058,4.937,49.27255308,-122.9766997,2.54999995
8.464482,-2.1328,1.0741,-0.3278,-17.0505,-6.5927,-3.3899,-0.4363,0.5058,4.937,49.27255308,-122.9766997,2.54999995
8.468832,-1.5121,0.4576,0.2301,-17.0505,-6.5927,-3.3899,-0.4363,0.5058,4.937,49.27255308,-122.9766997,2.54999995
8.484496,-1.4939,0.6572,0.2591,-17.0505,-6.5927,-3.3899,-0.4363,0.5058,4.937,49.27255308,-122.9766997,2.54999995
8.51135,-1.2129,3.4387,0.1653,-17.0505,-6.5927,-3.3899,-0.4363,0.5058,4.937,49.27255308,-122.9766997,2.54999995
8.516531,-1.2129,3.4387,0.1653,-17.0505,-6.5927,-3.3899,-0.4363,0.5058,4.937,49.27255308,-122.9766997,2.54999995
8.521247,-1.2129,3.4387,0.1653,-17.0505,-6.5927,-3.3899,1.1415,0.4036,-3.9016,49.27255308,-122.9766997,2.54999995
8.535082,-1.2293,3.0378,-0.298,-17.0505,-6.5927,-3.3899,1.1415,0.4036,-3.9016,49.27255308,-122.9766997,2.54999995
8.539717,-1.2293,3.0378,-0.298,-21.1457,4.9431,-0.1486,1.1415,0.4036,-3.9016,49.27255308,-122.9766997,2.54999995
8.549315,-3.7399,-3.3329,-1.5986,-21.1457,4.9431,-0.1486,1.1415,0.4036,-3.9016,49.27255308,-122.9766997,2.54999995
8.554143,-3.7399,-3.3329,-1.5986,-21.1457,4.9431,-0.1486,1.1415,0.4036,-3.9016,49.27255308,-122.9766997,2.54999995
8.570597,-3.7399,-3.3329,-1.5986,-21.1457,4.9431,-0.1486,1.1415,0.4036,-3.9016,49.27255308,-122.9766997,2.54999995
8.575304,-2.3828,0.8457,-0.3357,-21.1457,4.9431,-0.1486,1.1415,0.4036,-3.9016,49.27255308,-122.9766997,2.54999995
8.579609,-2.3828,0.8457,-0.3357,-21.1457,4.9431,-0.1486,1.2913,0.224,-5.596,49.27255308,-122.9766997,2.54999995
8.598971,-0.8489,2.6855,-1.2272,-21.1457,4.9431,-0.1486,1.2913,0.224,-5.596,49.27255308,-122.9766997,2.54999995
8.603067,-1.1914,0.8023,-1.1959,-21.1457,4.9431,-0.1486,1.2913,0.224,-5.596,49.27255308,-122.9766997,2.54999995
8.605286,-1.1914,0.8023,-1.1959,-15.5006,7.2842,-0.6331,1.2913,0.224,-5.596,49.27255308,-122.9766997,2.54999995
8.607849,-1.1914,0.8023,-1.1959,-15.5006,7.2842,-0.6331,1.2913,0.224,-5.596,49.27255308,-122.9766997,2.54999995
8.64924,-1.1914,0.8023,-1.1959,-15.5006,7.2842,-0.6331,-0.2381,-1.7246,-2.5324,49.27255308,-122.9766997,2.54999995
8.656685,-0.9457,3.1204,-1.1761,-15.5006,7.2842,-0.6331,-0.2381,-1.7246,-2.5324,49.27255308,-122.9766997,2.54999995
8.662466,0.439,4.6514,-0.2011,-15.5006,7.2842,-0.6331,-0.2381,-1.7246,-2.5324,49.27255308,-122.9766997,2.54999995
8.667938,0.439,4.6514,-0.2011,-15.5006,7.2842,-0.6331,-0.2381,-1.7246,-2.5324,49.27255308,-122.9766997,2.54999995
8.671324,0.5714,3.1698,-0.0945,-15.5006,7.2842,-0.6331,-0.2381,-1.7246,-2.5324,49.27255308,-122.9766997,2.54999995
8.67456,0.5714,3.1698,-0.0945,-13.1539,-0.6169,-5.9923,-0.2381,-1.7246,-2.5324,49.27255308,-122.9766997,2.54999995
8.686383,1.8245,2.4157,-1.0868,-13.1539,-0.6169,-5.9923,-0.2381,-1.7246,-2.5324,49.27255308,-122.9766997,2.54999995
8.710766,1.8245,2.4157,-1.0868,-13.1539,-0.6169,-5.9923,-0.2381,-1.7246,-2.5324,49.27255308,-122.9766997,2.54999995
8.714332,3.829,1.7745,-0.101,-13.1539,-0.6169,-5.9923,-0.2381,-1.7246,-2.5324,49.27255308,-122.9766997,2.54999995
8.717235,3.829,1.7745,-0.101,-13.1539,-0.6169,-5.9923,-0.3648,-2.3989,-2.0508,49.27255308,-122.9766997,2.54999995
8.729033,3.829,1.7745,-0.101,-13.1539,-0.6169,-5.9923,-0.3648,-2.3989,-2.0508,49.27255308,-122.9766997,2.54999995
8.733244,1.8262,1.1205,-0.1299,-13.1539,-0.6169,-5.9923,-0.3648,-2.3989,-2.0508,49.27255308,-122.9766997,2.54999995
8.736502,0.5878,1.0947,-0.6547,-13.1539,-0.6169,-5.9923,-0.3648,-2.3989,-2.0508,49.27255308,-122.9766997,2.54999995
8.739245,0.5878,1.0947,-0.6547,6.5278,26.562,-3.7565,-0.3648,-2.3989,-2.0508,49.27255308,-122.9766997,2.54999995
8.771679,0.5878,1.0947,-0.6547,6.5278,26.562,-3.7565,-0.3648,-2.3989,-2.0508,49.27255308,-122.9766997,2.54999995
8.777732,0.5778,1.2661,-0.0867,6.5278,26.562,-3.7565,-0.3648,-2.3989,-2.0508,49.27255308,-122.9766997,2.54999995
8.787417,0.5778,1.2661,-0.0867,6.5278,26.562,-3.7565,1.0459,-1.2249,-4.0443,49.27255308,-122.9766997,2.54999995
8.791537,1.7961,1.0546,-0.5153,6.5278,26.562,-3.7565,1.0459,-1.2249,-4.0443,49.27255308,-122.9766997,2.54999995
8.807522,2.3008,0.6721,0.6555,6.5278,26.562,-3.7565,1.0459,-1.2249,-4.0443,49.27255308,-122.9766997,2.54999995
8.810542,2.3008,0.6721,0.6555,6.5278,26.562,-3.7565,1.0459,-1.2249,-4.0443,49.27255308,-122.9766997,2.54999995
8.812836,2.3008,0.6721,0.6555,27.5698,8.0255,-2.4904,1.0459,-1.2249,-4.0443,49.27255308,-122.9766997,2.54999995
8.822298,1.2959,0.7811,0.1315,27.5698,8.0255,-2.4904,1.0459,-1.2249,-4.0443,49.27255308,-122.9766997,2.54999995
8.853187,1.2959,0.7811,0.1315,27.5698,8.0255,-2.4904,1.0459,-1.2249,-4.0443,49.27255308,-122.9766997,2.54999995
8.858452,0.4489,1.3267,-0.1806,27.5698,8.0255,-2.4904,1.0459,-1.2249,-4.0443,49.27255308,-122.9766997,2.54999995
8.861218,0.4489,1.3267,-0.1806,27.5698,8.0255,-2.4904,0.3769,0.9123,-1.1169,49.27255308,-122.9766997,2.54999995
8.876488,0.4489,1.3267,-0.1806,22.2774,4.3629,1.7993,0.3769,0.9123,-1.1169,49.27255308,-122.9766997,2.54999995
8.880358,-0.3111,2.1527,-1.1667,22.2774,4.3629,1.7993,0.3769,0.9123,-1.1169,49.27255308,-122.9766997,2.54999995
8.882704,-0.5978,1.2047,-0.5336,22.2774,4.3629,1.7993,0.3769,0.9123,-1.1169,49.27255308,-122.9766997,2.54999995
8.910187,-1.0588,1.008,-0.7836,22.2774,4.3629,1.7993,0.3769,0.9123,-1.1169,49.27255308,-122.9766997,2.54999995
8.91628,-1.337,0.7027,-1.032,22.2774,4.3629,1.7993,0.3769,0.9123,-1.1169,49.27255308,-122.9766997,2.54999995
8.920674,-1.337,0.7027,-1.032,22.2774,4.3629,1.7993,0.3769,0.9123,-1.1169,49.27255308,-122.9766997,2.54999995
8.923938,-1.337,0.7027,-1.032,22.2774,4.3629,1.7993,0.3769,0.9123,-1.1169,49.27255308,-122.9766997,2.54999995
8.927346,-1.337,0.7027,-1.032,22.2774,4.3629,1.7993,-0.9019,1.634,3.7324,49.27255308,-122.9766997,2.54999995
8.938037,-1.5618,0.6479,-0.428,22.2774,4.3629,1.7993,-0.9019,1.634,3.7324,49.27255308,-122.9766997,2.54999995
8.941748,-1.5618,0.6479,-0.428,7.0092,8.9332,-3.2627,-0.9019,1.634,3.7324,49.27255308,-122.9766997,2.54999995
8.957522,-1.1226,0.6219,-0.3696,7.0092,8.9332,-3.2627,-0.9019,1.634,3.7324,49.27255308,-122.9766997,2.54999995
8.970396,-1.1226,0.6219,-0.3696,7.0092,8.9332,-3.2627,-0.9019,1.634,3.7324,49.27255308,-122.9766997,2.54999995
8.973994,-0.8543,0.4744,-0.6093,7.0092,8.9332,-3.2627,-0.9019,1.634,3.7324,49.27255308,-122.9766997,2.54999995
8.985955,-0.8543,0.4744,-0.6093,7.0092,8.9332,-3.2627,-0.8234,1.6707,7.4323,49.27255308,-122.9766997,2.54999995
9.005857,-0.8279,0.6249,-0.8403,7.0092,8.9332,-3.2627,-0.8234,1.6707,7.4323,49.27255308,-122.9766997,2.54999995
9.008242,-1.0273,0.505,-0.4311,7.0092,8.9332,-3.2627,-0.8234,1.6707,7.4323,49.27257882,-122.9767361,2.73000002
9.010308,-1.0273,0.505,-0.4311,-8.8481,-0.1072,-4.4175,-0.8234,1.6707,7.4323,49.27257882,-122.9767361,2.73000002
9.047428,-2.1328,0.2639,-0.2462,-8.8481,-0.1072,-4.4175,-0.8234,1.6707,7.4323,49.27257882,-122.9767361,2.73000002
9.049934,-2.038,1.3379,-0.4454,-8.8481,-0.1072,-4.4175,-0.8234,1.6707,7.4323,49.27257882,-122.9767361,2.73000002
9.051774,-2.038,1.3379,-0.4454,-8.8481,-0.1072,-4.4175,-0.8234,1.6707,7.4323,49.27257882,-122.9767361,2.73000002
9.055038,-2.038,1.3379,-0.4454,-8.8481,-0.1072,-4.4175,-0.8521,0.8941,7.075,49.27257882,-122.9767361,2.73000002
9.074967,-1.9568,1.8343,-0.2495,-8.8481,-0.1072,-4.4175,-0.8521,0.8941,7.075,49.27257882,-122.9767361,2.73000002
9.077481,-1.9568,1.8343,-0.2495,-9.5341,-3.3286,-3.8518,-0.8521,0.8941,7.075,49.27257882,-122.9767361,2.73000002
9.084697,-1.9419,0.8692,-0.0356,-9.5341,-3.3286,-3.8518,-0.8521,0.8941,7.075,49.27257882,-122.9767361,2.73000002
9.089479,-1.9419,0.8692,-0.0356,-9.5341,-3.3286,-3.8518,-0.8521,0.8941,7.075,49.27257882,-122.9767361,2.73000002
9.111043,-1.9419,0.8692,-0.0356,-9.5341,-3.3286,-3.8518,-0.8521,0.8941,7.075,49.27257882,-122.9767361,2.73000002
9.116115,-1.7103,0.5607,0.1888,-9.5341,-3.3286,-3.8518,-0.8521,0.8941,7.075,49.27257882,-122.9767361,2.73000002
9.123348,-1.7103,0.5607,0.1888,-9.5341,-3.3286,-3.8518,0.3563,-0.2688,0.0731,49.27257882,-122.9767361,2.73000002
9.141198,-1.5883,0.7618,0.2653,-9.5341,-3.3286,-3.8518,0.3563,-0.2688,0.0731,49.27257882,-122.9767361,2.73000002
9.144503,-1.5883,0.7618,0.2653,-9.5341,-3.3286,-3.8518,0.3563,-0.2688,0.0731,49.27257882,-122.9767361,2.73000002
9.14719,-1.5883,0.7618,0.2653,-22.8406,3.0931,-1.2163,0.3563,-0.2688,0.0731,49.27257882,-122.9767361,2.73000002
9.149888,-1.0514,2.0055,-0.3885,-22.8406,3.0931,-1.2163,0.3563,-0.2688,0.0731,49.27257882,-122.9767361,2.73000002
9.161436,-0.7699,4.829,1.4418,-22.8406,3.0931,-1.2163,0.3563,-0.2688,0.0731,49.27257882,-122.9767361,2.73000002
9.171637,-0.7699,4.829,1.4418,-22.8406,3.0931,-1.2163,0.3563,-0.2688,0.0731,49.27257882,-122.9767361,2.73000002
9.190129,-0.7699,4.829,1.4418,-22.8406,3.0931,-1.2163,1.5282,1.5083,-6.475,49.27257882,-122.9767361,2.73000002
9.194156,-3.6255,-2.7275,-2.0969,-22.8406,3.0931,-1.2163,1.5282,1.5083,-6.475,49.27257882,-122.9767361,2.73000002
9.208513,-3.6255,-2.7275,-2.0969,-15.5408,1.6993,2.5818,1.5282,1.5083,-6.475,49.27257882,-122.9767361,2.73000002
9.211833,-2.5521,-0.3758,-1.0641,-15.5408,1.6993,2.5818,1.5282,1.5083,-6.475,49.27257882,-122.9767361,2.73000002
9.251929,-1.3692,2.9426,-0.7752,-15.5408,1.6993,2.5818,1.5282,1.5083,-6.475,49.27257882,-122.9767361,2.73000002
9.25976,-0.7751,0.8243,-1.1845,-15.5408,1.6993,2.5818,1.5282,1.5083,-6.475,49.27257882,-122.9767361,2.73000002
9.263612,-0.7751,0.8243,-1.1845,-15.5408,1.6993,2.5818,1.5282,1.5083,-6.475,49.27257882,-122.9767361,2.73000002
9.267757,-0.7751,0.8243,-1.1845,-15.5408,1.6993,2.5818,0.606,-1.8991,-3.5899,49.27257882,-122.9767361,2.73000002
9.272291,-1.0915,2.4915,-1.468,-15.5408,1.6993,2.5818,0.606,-1.8991,-3.5899,49.27257882,-122.9767361,2.73000002
9.276434,-1.0915,2.4915,-1.468,-15.5408,1.6993,2.5818,0.606,-1.8991,-3.5899,49.27257882,-122.9767361,2.73000002
9.280179,0.7381,4.5818,-0.3679,-15.5408,1.6993,2.5818,0.606,-1.8991,-3.5899,49.27257882,-122.9767361,2.73000002
9.283449,0.7381,4.5818,-0.3679,-19.633,1.0987,-1.752,0.606,-1.8991,-3.5899,49.27257882,-122.9767361,2.73000002
9.311238,0.8194,3.2566,0.0865,-19.633,1.0987,-1.752,0.606,-1.8991,-3.5899,49.27257882,-122.9767361,2.73000002
9.313973,0.8194,3.2566,0.0865,-19.633,1.0987,-1.752,0.606,-1.8991,-3.5899,49.27257882,-122.9767361,2.73000002
9.325179,0.8194,3.2566,0.0865,-19.633,1.0987,-1.752,-0.1643,-2.9163,-1.8347,49.27257882,-122.9767361,2.73000002
9.328236,1.1642,2.3003,-0.9213,-19.633,1.0987,-1.752,-0.1643,-2.9163,-1.8347,49.27257882,-122.9767361,2.73000002
9.334922,1.1642,2.3003,-0.9213,-19.633,1.0987,-1.752,-0.1643,-2.9163,-1.8347,49.27257882,-122.9767361,2.73000002
9.337405,2.7795,1.6205,-0.2644,-19.633,1.0987,-1.752,-0.1643,-2.9163,-1.8347,49.27257882,-122.9767361,2.73000002
9.344679,2.7795,1.6205,-0.2644,0.615,18.7817,-7.8271,-0.1643,-2.9163,-1.8347,49.27257882,-122.9767361,2.73000002
9.371292,2.7795,1.6205,-0.2644,0.615,18.7817,-7.8271,-0.1643,-2.9163,-1.8347,49.27257882,-122.9767361,2.73000002
9.376612,2.1034,1.4135,-0.4058,0.615,18.7817,-7.8271,-0.1643,-2.9163,-1.8347,49.27257882,-122.9767361,2.73000002
9.392466,2.1034,1.4135,-0.4058,0.615,18.7817,-7.8271,-0.2755,-0.0987,-3.7614,49.27257882,-122.9767361,2.73000002
9.398457,0.9262,1.0528,-0.3869,0.615,18.7817,-7.8271,-0.2755,-0.0987,-3.7614,49.27257882,-122.9767361,2.73000002
9.414547,0.9262,1.0528,-0.3869,21.9985,15.1351,-1.6332,-0.2755,-0.0987,-3.7614,49.27257882,-122.9767361,2.73000002
9.419355,0.5291,1.6154,-0.9846,21.9985,15.1351,-1.6332,-0.2755,-0.0987,-3.7614,49.27257882,-122.9767361,2.73000002
9.422514,1.5766,1.6301,0.3899,21.9985,15.1351,-1.6332,-0.2755,-0.0987,-3.7614,49.27257882,-122.9767361,2.73000002
9.448708,2.0517,0.9147,-0.3561,21.9985,15.1351,-1.6332,-0.2755,-0.0987,-3.7614,49.27257882,-122.9767361,2.73000002
9.453146,2.0517,0.9147,-0.3561,21.9985,15.1351,-1.6332,-0.2755,-0.0987,-3.7614,49.27257882,-122.9767361,2.73000002
9.456164,2.0517,0.9147,-0.3561,21.9985,15.1351,-1.6332,-0.2755,-0.0987,-3.7614,49.27257882,-122.9767361,2.73000002
9.459493,2.0517,0.9147,-0.3561,21.9985,15.1351,-1.6332,0.4943,-0.69,-3.0092,49.27257882,-122.9767361,2.73000002
9.46176,1.183,0.5903,0.5443,21.9985,15.1351,-1.6332,0.4943,-0.69,-3.0092,49.27257882,-122.9767361,2.73000002
9.480881,1.183,0.5903,0.5443,18.3298,8.597,-1.8391,0.4943,-0.69,-3.0092,49.27257882,-122.9767361,2.73000002
9.483255,0.1771,1.2586,-0.1458,18.3298,8.597,-1.8391,0.4943,-0.69,-3.0092,49.27257882,-122.9767361,2.73000002
9.510852,0.1771,1.2586,-0.1458,18.3298,8.597,-1.8391,0.4943,-0.69,-3.0092,49.27257882,-122.9767361,2.73000002
9.51611,-0.242,1.8307,-1.1159,18.3298,8.597,-1.8391,0.4943,-0.69,-3.0092,49.27257882,-122.9767361,2.73000002
9.519924,-0.6399,1.0456,-0.2443,18.3298,8.597,-1.8391,0.4943,-0.69,-3.0092,49.27257882,-122.9767361,2.73000002
9.531022,-0.6399,1.0456,-0.2443,18.3298,8.597,-1.8391,0.1822,1.109,1.3393,49.27257882,-122.9767361,2.73000002
9.548205,-0.6399,1.0456,-0.2443,16.6038,5.7901,0.4719,0.1822,1.109,1.3393,49.27257882,-122.9767361,2.73000002
9.551621,-0.7661,1.0335,-0.7262,16.6038,5.7901,0.4719,0.1822,1.109,1.3393,49.27257882,-122.9767361,2.73000002
9.554365,-1.293,0.5667,-1.1148,16.6038,5.7901,0.4719,0.1822,1.109,1.3393,49.27257882,-122.9767361,2.73000002
9.571218,-1.275,0.6773,-0.5982,16.6038,5.7901,0.4719,0.1822,1.109,1.3393,49.27257882,-122.9767361,2.73000002
9.575216,-1.275,0.6773,-0.5982,16.6038,5.7901,0.4719,0.1822,1.109,1.3393,49.27257882,-122.9767361,2.73000002
9.59594,-1.275,0.6773,-0.5982,16.6038,5.7901,0.4719,-0.8054,1.3936,6.6967,49.27257882,-122.9767361,2.73000002
9.60031,-1.5541,0.4982,-0.241,16.6038,5.7901,0.4719,-0.8054,1.3936,6.6967,49.27257882,-122.9767361,2.73000002
9.614976,-0.8439,0.1459,-0.2561,16.6038,5.7901,0.4719,-0.8054,1.3936,6.6967,49.27257882,-122.9767361,2.73000002
9.619412,-0.8439,0.1459,-0.2561,-2.5278,3.3827,-4.6527,-0.8054,1.3936,6.6967,49.27257882,-122.9767361,2.73000002
9.631039,-0.8174,0.3322,-0.4752,-2.5278,3.3827,-4.6527,-0.8054,1.3936,6.6967,49.27257882,-122.9767361,2.73000002
9.634372,-0.8174,0.3322,-0.4752,-2.5278,3.3827,-4.6527,-0.8054,1.3936,6.6967,49.27257882,-122.9767361,2.73000002
9.651036,-1.0794,0.5675,-0.1912,-2.5278,3.3827,-4.6527,-0.8054,1.3936,6.6967,49.27257882,-122.9767361,2.73000002
9.654823,-1.0794,0.5675,-0.1912,-2.5278,3.3827,-4.6527,-0.8054,1.3936,6.6967,49.27257882,-122.9767361,2.73000002
9.663296,-1.0794,0.5675,-0.1912,-2.5278,3.3827,-4.6527,-0.4415,1.0833,8.0943,49.27257882,-122.9767361,2.73000002
9.66764,-1.8471,0.7944,-0.3802,-2.5278,3.3827,-4.6527,-0.4415,1.0833,8.0943,49.27257882,-122.9767361,2.73000002
9.682699,-2.0836,1.293,-0.4849,-2.5278,3.3827,-4.6527,-0.4415,1.0833,8.0943,49.27257882,-122.9767361,2.73000002
9.686158,-2.0836,1.293,-0.4849,-9.935,-4.3128,-1.0918,-0.4415,1.0833,8.0943,49.27257882,-122.9767361,2.73000002
9.711857,-2.0836,1.293,-0.4849,-9.935,-4.3128,-1.0918,-0.4415,1.0833,8.0943,49.27257882,-122.9767361,2.73000002
9.717062,-1.7956,1.6326,-0.2598,-9.935,-4.3128,-1.0918,-0.4415,1.0833,8.0943,49.27257882,-122.9767361,2.73000002
9.731534,-1.7956,1.6326,-0.2598,-9.935,-4.3128,-1.0918,-0.6475,0.277,3.6449,49.27257882,-122.9767361,2.73000002
9.736457,-1.7473,0.9072,-0.006,-9.935,-4.3128,-1.0918,-0.6475,0.277,3.6449,49.27257882,-122.9767361,2.73000002
9.751747,-1.7473,0.9072,-0.006,-17.4924,-0.1265,-1.3849,-0.6475,0.277,3.6449,49.27257882,-122.9767361,2.73000002
9.756302,-1.7853,0.6738,0.1456,-17.4924,-0.1265,-1.3849,-0.6475,0.277,3.6449,49.27257882,-122.9767361,2.73000002
9.778585,-1.7853,0.6738,0.1456,-17.4924,-0.1265,-1.3849,-0.6475,0.277,3.6449,49.27257882,-122.9767361,2.73000002
9.782525,-1.5273,0.7807,0.2115,-17.4924,-0.1265,-1.3849,-0.6475,0.277,3.6449,49.27257882,-122.9767361,2.73000002
9.798933,-1.5273,0.7807,0.2115,-17.4924,-0.1265,-1.3849,1.1379,1.016,-4.3695,49.27257882,-122.9767361,2.73000002
9.80303,-0.9796,2.7923,-0.3582,-17.4924,-0.1265,-1.3849,1.1379,1.016,-4.3695,49.27257882,-122.9767361,2.73000002
9.813985,-0.8985,3.6814,1.1205,-17.4924,-0.1265,-1.3849,1.1379,1.016,-4.3695,49.27257882,-122.9767361,2.73000002
9.817873,-0.8985,3.6814,1.1205,-17.4924,-0.1265,-1.3849,1.1379,1.016,-4.3695,49.27257882,-122.9767361,2.73000002
9.820893,-3.5789,-2.6453,-1.9895,-17.4924,-0.1265,-1.3849,1.1379,1.016,-4.3695,49.27257882,-122.9767361,2.73000002
9.823721,-3.5789,-2.6453,-1.9895,-19.502,1.8957,2.1909,1.1379,1.016,-4.3695,49.27257882,-122.9767361,2.73000002
9.851205,-3.5789,-2.6453,-1.9895,-19.502,1.8957,2.1909,1.1379,1.016,-4.3695,49.27257882,-122.9767361,2.73000002
9.855981,-2.4498,0.1311,-1.1095,-19.502,1.8957,2.1909,1.1379,1.016,-4.3695,49.27257882,-122.9767361,2.73000002
9.867039,-2.4498,0.1311,-1.1095,-19.502,1.8957,2.1909,1.2437,-0.3447,-4.8078,49.27257882,-122.9767361,2.73000002
9.872097,-1.1136,2.5722,-0.5975,-19.502,1.8957,2.1909,1.2437,-0.3447,-4.8078,49.27257882,-122.9767361,2.73000002
9.87609,-1.1136,2.5722,-0.5975,-19.502,1.8957,2.1909,1.2437,-0.3447,-4.8078,49.27257882,-122.9767361,2.73000002
9.88861,-0.7453,0.9739,-1.0684,-19.502,1.8957,2.1909,1.2437,-0.3447,-4.8078,49.27257882,-122.9767361,2.73000002
9.892774,-0.7453,0.9739,-1.0684,-15.9858,3.6877,-0.1595,1.2437,-0.3447,-4.8078,49.27257882,-122.9767361,2.73000002
9.913667,-0.7453,0.9739,-1.0684,-15.9858,3.6877,-0.1595,1.2437,-0.3447,-4.8078,49.27257882,-122.9767361,2.73000002
9.91797,-1.1367,1.8375,-1.4089,-15.9858,3.6877,-0.1595,1.2437,-0.3447,-4.8078,49.27257882,-122.9767361,2.73000002
9.931493,-0.1136,4.0105,-0.6755,-15.9858,3.6877,-0.1595,1.2437,-0.3447,-4.8078,49.27257882,-122.9767361,2.73000002
9.935781,-0.1136,4.0105,-0.6755,-15.9858,3.6877,-0.1595,-0.0229,-1.5974,-2.2833,49.27257882,-122.9767361,2.73000002
9.952052,0.7996,3.4711,-0.1253,-15.9858,3.6877,-0.1595,-0.0229,-1.5974,-2.2833,49.27257882,-122.9767361,2.73000002
9.956317,1.0491,2.5123,-0.7378,-15.9858,3.6877,-0.1595,-0.0229,-1.5974,-2.2833,49.27257882,-122.9767361,2.73000002
9.96014,1.0491,2.5123,-0.7378,-10.2483,4.3374,-6.2487,-0.0229,-1.5974,-2.2833,49.27257882,-122.9767361,2.73000002
9.981177,1.0491,2.5123,-0.7378,-10.2483,4.3374,-6.2487,-0.0229,-1.5974,-2.2833,49.27257882,-122.9767361,2.73000002
9.989431,2.9339,1.7795,-0.6032,-10.2483,4.3374,-6.2487,-0.0229,-1.5974,-2.2833,49.27257882,-122.9767361,2.73000002
9.991992,2.9339,1.7795,-0.6032,-10.2483,4.3374,-6.2487,-0.0229,-1.5974,-2.2833,49.27257882,-122.9767361,2.73000002
10.005034,2.9339,1.7795,-0.6032,-10.2483,4.3374,-6.2487,-0.2326,-3.2317,-1.9251,49.27257882,-122.9767361,2.73000002
10.007196,2.0001,1.2833,-0.1087,-10.2483,4.3374,-6.2487,-0.2326,-3.2317,-1.9251,49.272594,-122.9767771,3.08999991
10.016526,0.9862,1.2248,-0.4286,-10.2483,4.3374,-6.2487,-0.2326,-3.2317,-1.9251,49.272594,-122.9767771,3.08999991
10.020207,0.9862,1.2248,-0.4286,8.0637,23.8215,-4.2453,-0.2326,-3.2317,-1.9251,49.272594,-122.9767771,3.08999991
10.047101,0.7755,1.6113,-0.5019,8.0637,23.8215,-4.2453,-0.2326,-3.2317,-1.9251,49.272594,-122.9767771,3.08999991
10.049945,0.7755,1.6113,-0.5019,8.0637,23.8215,-4.2453,-0.2326,-3.2317,-1.9251,49.272594,-122.9767771,3.08999991
10.052112,1.547,1.5821,0.3206,8.0637,23.8215,-4.2453,-0.2326,-3.2317,-1.9251,49.272594,-122.9767771,3.08999991
10.06963,1.547,1.5821,0.3206,8.0637,23.8215,-4.2453,0.8662,-0.8793,-4.4002,49.272594,-122.9767771,3.08999991
10.084845,1.9097,0.9532,-0.2736,8.0637,23.8215,-4.2453,0.8662,-0.8793,-4.4002,49.272594,-122.9767771,3.08999991
10.092734,1.8394,0.5196,0.4798,8.0637,23.8215,-4.2453,0.8662,-0.8793,-4.4002,49.272594,-122.9767771,3.08999991
10.095076,1.8394,0.5196,0.4798,23.7076,7.6774,-2.1058,0.8662,-0.8793,-4.4002,49.272594,-122.9767771,3.08999991
10.111951,0.6796,0.7472,0.0619,23.7076,7.6774,-2.1058,0.8662,-0.8793,-4.4002,49.272594,-122.9767771,3.08999991
10.115901,0.6796,0.7472,0.0619,23.7076,7.6774,-2.1058,0.8662,-0.8793,-4.4002,49.272594,-122.9767771,3.08999991
10.136828,0.6796,0.7472,0.0619,23.7076,7.6774,-2.1058,0.627,0.781,-1.5351,49.272594,-122.9767771,3.08999991
10.141043,-0.0159,1.7084,-0.714,23.7076,7.6774,-2.1058,0.627,0.781,-1.5351,49.272594,-122.9767771,3.08999991
10.151682,-0.5889,1.4652,-0.9944,23.7076,7.6774,-2.1058,0.627,0.781,-1.5351,49.272594,-122.9767771,3.08999991
10.165927,-0.5889,1.4652,-0.9944,23.288,6.2539,2.3671,0.627,0.781,-1.5351,49.272594,-122.9767771,3.08999991
10.171278,-0.8051,0.7462,-0.6112,23.288,6.2539,2.3671,0.627,0.781,-1.5351,49.272594,-122.9767771,3.08999991
10.176111,-0.8051,0.7462,-0.6112,23.288,6.2539,2.3671,0.627,0.781,-1.5351,49.272594,-122.9767771,3.08999991
10.180591,-0.8051,0.7462,-0.6112,23.288,6.2539,2.3671,0.627,0.781,-1.5351,49.272594,-122.9767771,3.08999991
10.201384,-0.9917,0.8578,-0.6415,23.288,6.2539,2.3671,0.627,0.781,-1.5351,49.272594,-122.9767771,3.08999991
10.205742,-0.9917,0.8578,-0.6415,23.288,6.2539,2.3671,-0.8242,1.0911,4.0258,49.272594,-122.9767771,3.08999991
10.217172,-1.3128,0.581,-0.7636,23.288,6.2539,2.3671,-0.8242,1.0911,4.0258,49.272594,-122.9767771,3.08999991
10.229568,-1.3881,0.651,-0.1265,23.288,6.2539,2.3671,-0.8242,1.0911,4.0258,49.272594,-122.9767771,3.08999991
10.233118,-1.3881,0.651,-0.1265,5.914,6.8297,-3.0751,-0.8242,1.0911,4.0258,49.272594,-122.9767771,3.08999991
10.250731,-1.3881,0.651,-0.1265,5.914,6.8297,-3.0751,-0.8242,1.0911,4.0258,49.272594,-122.9767771,3.08999991
10.25422,-1.21,0.3887,-0.0279,5.914,6.8297,-3.0751,-0.8242,1.0911,4.0258,49.272594,-122.9767771,3.08999991
10.273432,-1.21,0.3887,-0.0279,5.914,6.8297,-3.0751,-0.7562,1.4824,7.883,49.272594,-122.9767771,3.08999991
10.277484,-1.2065,0.209,-0.5172,5.914,6.8297,-3.0751,-0.7562,1.4824,7.883,49.272594,-122.9767771,3.08999991
10.284973,-1.0582,0.4113,-0.3571,5.914,6.8297,-3.0751,-0.7562,1.4824,7.883,49.272594,-122.9767771,3.08999991
10.293213,-1.0582,0.4113,-0.3571,-7.5564,-0.5468,-2.7674,-0.7562,1.4824,7.883,49.272594,-122.9767771,3.08999991
10.312437,-1.0582,0.4113,-0.3571,-7.5564,-0.5468,-2.7674,-0.7562,1.4824,7.883,49.272594,-122.9767771,3.08999991
10.316158,-1.2966,0.71,0.0102,-7.5564,-0.5468,-2.7674,-0.7562,1.4824,7.883,49.272594,-122.9767771,3.08999991
10.341432,-1.2966,0.71,0.0102,-7.5564,-0.5468,-2.7674,-0.9005,0.4436,7.245,49.272594,-122.9767771,3.08999991
10.345803,-2.2261,1.2538,-0.4976,-7.5564,-0.5468,-2.7674,-0.9005,0.4436,7.245,49.272594,-122.9767771,3.08999991
10.349309,-2.2261,1.2538,-0.4976,-7.5564,-0.5468,-2.7674,-0.9005,0.4436,7.245,49.272594,-122.9767771,3.08999991
10.352454,-1.8877,2.1625,-0.2967,-7.5564,-0.5468,-2.7674,-0.9005,0.4436,7.245,49.272594,-122.9767771,3.08999991
10.360235,-1.8498,1.1681,-0.2183,-7.5564,-0.5468,-2.7674,-0.9005,0.4436,7.245,49.272594,-122.9767771,3.08999991
10.364421,-1.8498,1.1681,-0.2183,-12.0467,-4.7161,-0.2663,-0.9005,0.4436,7.245,49.272594,-122.9767771,3.08999991
10.370722,-1.8498,1.1681,-0.2183,-12.0467,-4.7161,-0.2663,-0.9005,0.4436,7.245,49.272594,-122.9767771,3.08999991
10.400248,-1.8498,1.1681,-0.2183,-12.0467,-4.7161,-0.2663,-0.9005,0.4436,7.245,49.272594,-122.9767771,3.08999991
10.404445,-1.922,0.664,-0.0471,-12.0467,-4.7161,-0.2663,-0.9005,0.4436,7.245,49.272594,-122.9767771,3.08999991
10.407618,-1.6412,0.5629,0.1945,-12.0467,-4.7161,-0.2663,-0.9005,0.4436,7.245,49.272594,-122.9767771,3.08999991
10.410398,-1.6412,0.5629,0.1945,-12.0467,-4.7161,-0.2663,0.2553,0.2104,-1.1403,49.272594,-122.9767771,3.08999991
10.428573,-0.8769,0.8806,-0.1609,-12.0467,-4.7161,-0.2663,0.2553,0.2104,-1.1403,49.272594,-122.9767771,3.08999991
10.432287,-0.8769,0.8806,-0.1609,-21.385,5.766,-1.1826,0.2553,0.2104,-1.1403,49.272594,-122.9767771,3.08999991
10.450673,-0.2999,3.7213,0.4497,-21.385,5.766,-1.1826,0.2553,0.2104,-1.1403,49.272594,-122.9767771,3.08999991
10.454225,-0.2999,3.7213,0.4497,-21.385,5.766,-1.1826,0.2553,0.2104,-1.1403,49.272594,-122.9767771,3.08999991
10.477037,-2.6268,0.9291,-0.7786,-21.385,5.766,-1.1826,0.2553,0.2104,-1.1403,49.272594,-122.9767771,3.08999991
10.479372,-2.6268,0.9291,-0.7786,-21.385,5.766,-1.1826,1.4237,1.4401,-5.9174,49.272594,-122.9767771,3.08999991
10.485075,-3.1916,-2.1393,-1.0432,-21.385,5.766,-1.1826,1.4237,1.4401,-5.9174,49.272594,-122.9767771,3.08999991
10.496942,-1.1862,2.2793,-0.5964,-21.385,5.766,-1.1826,1.4237,1.4401,-5.9174,49.272594,-122.9767771,3.08999991
10.499857,-1.1862,2.2793,-0.5964,-12.4939,1.6779,2.5284,1.4237,1.4401,-5.9174,49.272594,-122.9767771,3.08999991
10.511947,-1.1862,2.2793,-0.5964,-12.4939,1.6779,2.5284,1.4237,1.4401,-5.9174,49.272594,-122.9767771,3.08999991
