
time,gFx,gFy,gFz,ax,ay,az,wx,wy,wz,p,Azimuth,Pitch,Roll,Latitude,Longitude,Speed (m/s),
0.042251,-0.1505,0.6297,0.8030,0.0000,0.0000,0.0000,0.0000,0.0000,0.0000,0.0000,0.0000,0.0000,0.0000,0.00000000,0.00000000,0.00000000,
0.051922,-0.1319,0.6185,0.8238,0.0000,0.0000,0.0000,0.0000,0.0000,0.0000,0.0000,0.0000,0.0000,0.0000,49.26679024,-122.90578601,0.00000000,
0.082945,-0.1142,0.6160,0.8217,0.0000,0.0000,0.0000,0.0000,0.0000,0.0000,0.0000,0.0000,0.0000,0.0000,49.26679024,-122.90578601,0.00000000,
0.084043,-0.1142,0.6160,0.8217,0.0000,0.0000,0.0000,0.0617,0.0134,-0.0047,0.0000,0.0000,0.0000,0.0000,49.26679024,-122.90578601,0.00000000,
0.084738,-0.0707,0.6268,0.7844,0.0000,0.0000,0.0000,0.0617,0.0134,-0.0047,0.0000,0.0000,0.0000,0.0000,49.26679024,-122.90578601,0.00000000,
0.111024,-0.1063,0.6129,0.7804,0.0000,0.0000,0.0000,0.0617,0.0134,-0.0047,0.0000,0.0000,0.0000,0.0000,49.26679024,-122.90578601,0.00000000,
0.148437,-0.1063,0.6129,0.7804,0.0000,0.0000,0.0000,0.0386,0.0903,-0.0125,0.0000,0.0000,0.0000,0.0000,49.26679024,-122.90578601,0.00000000,
0.159326,-0.1063,0.6129,0.7804,0.0000,0.0000,0.0000,0.0386,0.0903,-0.0125,1004.5346,0.0000,0.0000,0.0000,49.26679024,-122.90578601,0.00000000,
0.160119,-0.1063,0.6129,0.7804,0.0000,0.0000,0.0000,0.0386,0.0903,-0.0125,1004.5346,0.0000,0.0000,0.0000,49.26679024,-122.90578601,0.00000000,
0.160583,-0.1063,0.6129,0.7804,0.0000,0.0000,0.0000,0.0386,0.0903,-0.0125,1004.5346,52.1456,-37.4578,-7.2330,49.26679024,-122.90578601,0.00000000,
0.176664,-0.1076,0.6070,0.8343,0.0000,0.0000,0.0000,0.0386,0.0903,-0.0125,1004.5346,52.1456,-37.4578,-7.2330,49.26679024,-122.90578601,0.00000000,
0.177725,-0.0985,0.6144,0.8559,0.0000,0.0000,0.0000,0.0386,0.0903,-0.0125,1004.5346,52.1456,-37.4578,-7.2330,49.26679024,-122.90578601,0.00000000,
0.178480,-0.1011,0.6061,0.8496,0.0000,0.0000,0.0000,0.0386,0.0903,-0.0125,1004.5346,52.1456,-37.4578,-7.2330,49.26679024,-122.90578601,0.00000000,
0.179273,-0.1000,0.6062,0.8443,0.0000,0.0000,0.0000,0.0386,0.0903,-0.0125,1004.5346,52.1456,-37.4578,-7.2330,49.26679024,-122.90578601,0.00000000,
0.198064,-0.1000,0.6062,0.8443,0.0000,0.0000,0.0000,0.0386,0.0903,-0.0125,1004.5436,52.1456,-37.4578,-7.2330,49.26679024,-122.90578601,0.00000000,
0.213994,-0.1000,0.6062,0.8443,0.0000,0.0000,0.0000,0.2037,0.0790,-0.0191,1004.5436,52.1456,-37.4578,-7.2330,49.26679024,-122.90578601,0.00000000,
0.224347,-0.1000,0.6062,0.8443,0.0000,0.0000,0.0000,0.2037,0.0790,-0.0191,1004.5436,53.7772,-36.9265,-7.3250,49.26679024,-122.90578601,0.00000000,
0.224958,-0.1000,0.6062,0.8443,0.0138,-0.1071,0.2503,0.2037,0.0790,-0.0191,1004.5436,53.7772,-36.9265,-7.3250,49.26679024,-122.90578601,0.00000000,
0.237797,-0.1000,0.6062,0.8443,0.0138,-0.1071,0.2503,0.2037,0.0790,-0.0191,1004.5483,53.7772,-36.9265,-7.3250,49.26679024,-122.90578601,0.00000000,
0.242902,-0.1008,0.6096,0.8315,0.0138,-0.1071,0.2503,0.2037,0.0790,-0.0191,1004.5483,53.7772,-36.9265,-7.3250,49.26679024,-122.90578601,0.00000000,
0.243397,-0.1013,0.6085,0.7951,0.0138,-0.1071,0.2503,0.2037,0.0790,-0.0191,1004.5483,53.7772,-36.9265,-7.3250,49.26679024,-122.90578601,0.00000000,
0.243771,-0.1074,0.6166,0.7458,0.0138,-0.1071,0.2503,0.2037,0.0790,-0.0191,1004.5483,53.7772,-36.9265,-7.3250,49.26679024,-122.90578601,0.00000000,
0.253918,-0.0960,0.6251,0.7196,0.0138,-0.1071,0.2503,0.2037,0.0790,-0.0191,1004.5483,53.7772,-36.9265,-7.3250,49.26679024,-122.90578601,0.00000000,
0.278042,-0.0960,0.6251,0.7196,0.0138,-0.1071,0.2503,0.2037,0.0790,-0.0191,1004.5453,53.7772,-36.9265,-7.3250,49.26679024,-122.90578601,0.00000000,
0.279754,-0.0960,0.6251,0.7196,0.0138,-0.1071,0.2503,0.1152,0.0239,-0.0754,1004.5453,53.7772,-36.9265,-7.3250,49.26679024,-122.90578601,0.00000000,
0.289935,-0.0960,0.6251,0.7196,0.0138,-0.1071,0.2503,0.1152,0.0239,-0.0754,1004.5453,53.0527,-37.0612,-7.5475,49.26679024,-122.90578601,0.00000000,
0.290944,-0.0960,0.6251,0.7196,0.0532,-0.0847,-0.0502,0.1152,0.0239,-0.0754,1004.5453,53.0527,-37.0612,-7.5475,49.26679024,-122.90578601,0.00000000,
0.310898,-0.0835,0.6239,0.7098,0.0532,-0.0847,-0.0502,0.1152,0.0239,-0.0754,1004.5453,53.0527,-37.0612,-7.5475,49.26679024,-122.90578601,0.00000000,
0.312092,-0.0978,0.6210,0.7211,0.0532,-0.0847,-0.0502,0.1152,0.0239,-0.0754,1004.5453,53.0527,-37.0612,-7.5475,49.26679024,-122.90578601,0.00000000,
0.313055,-0.1212,0.6188,0.7755,0.0532,-0.0847,-0.0502,0.1152,0.0239,-0.0754,1004.5453,53.0527,-37.0612,-7.5475,49.26679024,-122.90578601,0.00000000,
0.319274,-0.1212,0.6188,0.7755,0.0532,-0.0847,-0.0502,0.1152,0.0239,-0.0754,1004.5471,53.0527,-37.0612,-7.5475,49.26679024,-122.90578601,0.00000000,
0.346279,-0.1212,0.6188,0.7755,0.0532,-0.0847,-0.0502,-0.0319,0.0224,-0.1452,1004.5471,53.0527,-37.0612,-7.5475,49.26679024,-122.90578601,0.00000000,
0.355776,-0.1212,0.6188,0.7755,0.1400,0.0454,-0.6762,-0.0319,0.0224,-0.1452,1004.5471,53.0527,-37.0612,-7.5475,49.26679024,-122.90578601,0.00000000,
0.356834,-0.1212,0.6188,0.7755,0.1400,0.0454,-0.6762,-0.0319,0.0224,-0.1452,1004.5522,53.0527,-37.0612,-7.5475,49.26679024,-122.90578601,0.00000000,
0.377373,-0.1296,0.6219,0.8126,0.1400,0.0454,-0.6762,-0.0319,0.0224,-0.1452,1004.5522,53.0527,-37.0612,-7.5475,49.26679024,-122.90578601,0.00000000,
0.378401,-0.1306,0.6193,0.8074,0.1400,0.0454,-0.6762,-0.0319,0.0224,-0.1452,1004.5522,53.0527,-37.0612,-7.5475,49.26679024,-122.90578601,0.00000000,
0.379320,-0.1311,0.6162,0.7882,0.1400,0.0454,-0.6762,-0.0319,0.0224,-0.1452,1004.5522,53.0527,-37.0612,-7.5475,49.26679024,-122.90578601,0.00000000,
0.398172,-0.1311,0.6162,0.7882,0.1400,0.0454,-0.6762,-0.0319,0.0224,-0.1452,1004.5602,53.0527,-37.0612,-7.5475,49.26679024,-122.90578601,0.00000000,
0.402718,-0.1311,0.6162,0.7882,0.1400,0.0454,-0.6762,-0.0319,0.0224,-0.1452,1004.5602,50.5517,-37.8060,-7.9054,49.26679024,-122.90578601,0.00000000,
0.403939,-0.1342,0.6166,0.7847,0.1400,0.0454,-0.6762,-0.0319,0.0224,-0.1452,1004.5602,50.5517,-37.8060,-7.9054,49.26679024,-122.90578601,0.00000000,
0.404737,-0.1465,0.6213,0.7973,0.1400,0.0454,-0.6762,-0.0319,0.0224,-0.1452,1004.5602,50.5517,-37.8060,-7.9054,49.26679024,-122.90578601,0.00000000,
0.412129,-0.1465,0.6213,0.7973,0.1400,0.0454,-0.6762,0.1077,0.0647,-0.0971,1004.5602,50.5517,-37.8060,-7.9054,49.26679024,-122.90578601,0.00000000,
0.422548,-0.1465,0.6213,0.7973,-0.0930,-0.0348,0.1281,0.1077,0.0647,-0.0971,1004.5602,50.5517,-37.8060,-7.9054,49.26679024,-122.90578601,0.00000000,
0.438354,-0.1465,0.6213,0.7973,-0.0930,-0.0348,0.1281,0.1077,0.0647,-0.0971,1004.5729,50.5517,-37.8060,-7.9054,49.26679024,-122.90578601,0.00000000,
0.450714,-0.1453,0.6204,0.7874,-0.0930,-0.0348,0.1281,0.1077,0.0647,-0.0971,1004.5729,50.5517,-37.8060,-7.9054,49.26679024,-122.90578601,0.00000000,
0.451589,-0.1355,0.6193,0.7588,-0.0930,-0.0348,0.1281,0.1077,0.0647,-0.0971,1004.5729,50.5517,-37.8060,-7.9054,49.26679024,-122.90578601,0.00000000,
0.459583,-0.1355,0.6193,0.7588,-0.0930,-0.0348,0.1281,0.1077,0.0647,-0.0971,1004.5729,51.5403,-38.0408,-8.5988,49.26679024,-122.90578601,0.00000000,
0.478039,-0.1355,0.6193,0.7588,-0.0930,-0.0348,0.1281,0.1077,0.0647,-0.0971,1004.5685,51.5403,-38.0408,-8.5988,49.26679024,-122.90578601,0.00000000,
0.479337,-0.1355,0.6193,0.7588,-0.0930,-0.0348,0.1281,0.0832,-0.0163,-0.0412,1004.5685,51.5403,-38.0408,-8.5988,49.26679024,-122.90578601,0.00000000,
0.488033,-0.1355,0.6193,0.7588,-0.1830,-0.0544,0.0237,0.0832,-0.0163,-0.0412,1004.5685,51.5403,-38.0408,-8.5988,49.26679024,-122.90578601,0.00000000,
0.517435,-0.1498,0.6282,0.7452,-0.1830,-0.0544,0.0237,0.0832,-0.0163,-0.0412,1004.5685,51.5403,-38.0408,-8.5988,49.26679024,-122.90578601,0.00000000,
0.518609,-0.1528,0.6306,0.7614,-0.1830,-0.0544,0.0237,0.0832,-0.0163,-0.0412,1004.5685,51.5403,-38.0408,-8.5988,49.26679024,-122.90578601,0.00000000,
0.519553,-0.1375,0.6259,0.7824,-0.1830,-0.0544,0.0237,0.0832,-0.0163,-0.0412,1004.5685,51.5403,-38.0408,-8.5988,49.26679024,-122.90578601,0.00000000,
0.520396,-0.1390,0.6314,0.7789,-0.1830,-0.0544,0.0237,0.0832,-0.0163,-0.0412,1004.5685,51.5403,-38.0408,-8.5988,49.26679024,-122.90578601,0.00000000,
0.521209,-0.1390,0.6314,0.7789,-0.1830,-0.0544,0.0237,0.0832,-0.0163,-0.0412,1004.5720,51.5403,-38.0408,-8.5988,49.26679024,-122.90578601,0.00000000,
0.525534,-0.1390,0.6314,0.7789,-0.1830,-0.0544,0.0237,0.0832,-0.0163,-0.0412,1004.5720,52.7921,-38.1652,-8.8489,49.26679024,-122.90578601,0.00000000,
0.544838,-0.1390,0.6314,0.7789,-0.1830,-0.0544,0.0237,0.0099,-0.1332,-0.0165,1004.5720,52.7921,-38.1652,-8.8489,49.26679024,-122.90578601,0.00000000,
0.554669,-0.1390,0.6314,0.7789,-0.2481,0.0131,-0.2249,0.0099,-0.1332,-0.0165,1004.5720,52.7921,-38.1652,-8.8489,49.26679024,-122.90578601,0.00000000,
0.559070,-0.1390,0.6314,0.7789,-0.2481,0.0131,-0.2249,0.0099,-0.1332,-0.0165,1004.5783,52.7921,-38.1652,-8.8489,49.26679024,-122.90578601,0.00000000,
0.564542,-0.1284,0.6286,0.7536,-0.2481,0.0131,-0.2249,0.0099,-0.1332,-0.0165,1004.5783,52.7921,-38.1652,-8.8489,49.26679024,-122.90578601,0.00000000,
0.566161,-0.1227,0.6188,0.7426,-0.2481,0.0131,-0.2249,0.0099,-0.1332,-0.0165,1004.5783,52.7921,-38.1652,-8.8489,49.26679024,-122.90578601,0.00000000,
0.583501,-0.1022,0.5995,0.7364,-0.2481,0.0131,-0.2249,0.0099,-0.1332,-0.0165,1004.5783,52.7921,-38.1652,-8.8489,49.26679024,-122.90578601,0.00000000,
0.584154,-0.1022,0.5995,0.7364,-0.2481,0.0131,-0.2249,0.0099,-0.1332,-0.0165,1004.5783,53.6271,-38.2966,-8.6911,49.26679024,-122.90578601,0.00000000,
0.593348,-0.0739,0.5680,0.7655,-0.2481,0.0131,-0.2249,0.0099,-0.1332,-0.0165,1004.5783,53.6271,-38.2966,-8.6911,49.26679024,-122.90578601,0.00000000,
0.597725,-0.0739,0.5680,0.7655,-0.2481,0.0131,-0.2249,0.0099,-0.1332,-0.0165,1004.5761,53.6271,-38.2966,-8.6911,49.26679081,-122.90578548,0.00000000,
0.610189,-0.0739,0.5680,0.7655,-0.2481,0.0131,-0.2249,-0.1434,-0.5531,-0.1046,1004.5761,53.6271,-38.2966,-8.6911,49.26679081,-122.90578548,0.00000000,
0.621493,-0.0739,0.5680,0.7655,-0.3510,0.0919,-0.3083,-0.1434,-0.5531,-0.1046,1004.5761,53.6271,-38.2966,-8.6911,49.26679081,-122.90578548,0.00000000,
0.637844,-0.0739,0.5680,0.7655,-0.3510,0.0919,-0.3083,-0.1434,-0.5531,-0.1046,1004.5715,53.6271,-38.2966,-8.6911,49.26679081,-122.90578548,0.00000000,
0.667701,-0.0593,0.5647,0.7882,-0.3510,0.0919,-0.3083,-0.1434,-0.5531,-0.1046,1004.5715,53.6271,-38.2966,-8.6911,49.26679081,-122.90578548,0.00000000,
0.668340,-0.0342,0.5286,0.7884,-0.3510,0.0919,-0.3083,-0.1434,-0.5531,-0.1046,1004.5715,53.6271,-38.2966,-8.6911,49.26679081,-122.90578548,0.00000000,
0.668774,0.0209,0.5114,0.7521,-0.3510,0.0919,-0.3083,-0.1434,-0.5531,-0.1046,1004.5715,53.6271,-38.2966,-8.6911,49.26679081,-122.90578548,0.00000000,
0.669181,0.0858,0.5013,0.7169,-0.3510,0.0919,-0.3083,-0.1434,-0.5531,-0.1046,1004.5715,53.6271,-38.2966,-8.6911,49.26679081,-122.90578548,0.00000000,
0.676423,0.0858,0.5013,0.7169,-0.3510,0.0919,-0.3083,-0.7176,-2.3236,-0.5101,1004.5715,53.6271,-38.2966,-8.6911,49.26679081,-122.90578548,0.00000000,
0.677164,0.0858,0.5013,0.7169,-0.3510,0.0919,-0.3083,-0.7176,-2.3236,-0.5101,1004.5693,53.6271,-38.2966,-8.6911,49.26679081,-122.90578548,0.00000000,
0.685517,0.0858,0.5013,0.7169,-0.7648,-0.0405,-0.5040,-0.7176,-2.3236,-0.5101,1004.5693,53.6271,-38.2966,-8.6911,49.26679081,-122.90578548,0.00000000,
0.704732,0.0858,0.5013,0.7169,-0.7648,-0.0405,-0.5040,-0.7176,-2.3236,-0.5101,1004.5693,54.7628,-37.7193,-6.6990,49.26679081,-122.90578548,0.00000000,
0.705450,0.0858,0.5013,0.7169,-0.7648,-0.0405,-0.5040,-0.7176,-2.3236,-0.5101,1004.5693,58.8850,-34.7182,0.6652,49.26679081,-122.90578548,0.00000000,
0.717861,0.0858,0.5013,0.7169,-0.7648,-0.0405,-0.5040,-0.7176,-2.3236,-0.5101,1004.5861,58.8850,-34.7182,0.6652,49.26679081,-122.90578548,0.00000000,
0.725034,0.1250,0.5425,0.7487,-0.7648,-0.0405,-0.5040,-0.7176,-2.3236,-0.5101,1004.5861,58.8850,-34.7182,0.6652,49.26679081,-122.90578548,0.00000000,
0.725777,0.1044,0.5535,0.8309,-0.7648,-0.0405,-0.5040,-0.7176,-2.3236,-0.5101,1004.5861,58.8850,-34.7182,0.6652,49.26679081,-122.90578548,0.00000000,
0.726151,0.0782,0.5615,0.9296,-0.7648,-0.0405,-0.5040,-0.7176,-2.3236,-0.5101,1004.5861,58.8850,-34.7182,0.6652,49.26679081,-122.90578548,0.00000000,
0.742452,0.0782,0.5615,0.9296,-0.7648,-0.0405,-0.5040,-0.9025,-2.4401,-0.9904,1004.5861,58.8850,-34.7182,0.6652,49.26679081,-122.90578548,0.00000000,
0.752106,0.0782,0.5615,0.9296,-0.2760,-0.0417,-0.8638,-0.9025,-2.4401,-0.9904,1004.5861,58.8850,-34.7182,0.6652,49.26679081,-122.90578548,0.00000000,
0.758248,0.0782,0.5615,0.9296,-0.2760,-0.0417,-0.8638,-0.9025,-2.4401,-0.9904,1004.5876,58.8850,-34.7182,0.6652,49.26679081,-122.90578548,0.00000000,
0.760811,0.0782,0.5615,0.9296,-0.2760,-0.0417,-0.8638,-0.9025,-2.4401,-0.9904,1004.5876,63.5292,-31.9941,6.9851,49.26679081,-122.90578548,0.00000000,
0.797934,0.0782,0.5615,0.9296,-0.2760,-0.0417,-0.8638,-0.9025,-2.4401,-0.9904,1004.5991,63.5292,-31.9941,6.9851,49.26679081,-122.90578548,0.00000000,
0.800179,0.0643,0.5275,0.9814,-0.2760,-0.0417,-0.8638,-0.9025,-2.4401,-0.9904,1004.5991,63.5292,-31.9941,6.9851,49.26679081,-122.90578548,0.00000000,
0.800741,0.2219,0.4125,0.7988,-0.2760,-0.0417,-0.8638,-0.9025,-2.4401,-0.9904,1004.5991,63.5292,-31.9941,6.9851,49.26679081,-122.90578548,0.00000000,
0.801198,0.3163,0.4914,0.8496,-0.2760,-0.0417,-0.8638,-0.9025,-2.4401,-0.9904,1004.5991,63.5292,-31.9941,6.9851,49.26679081,-122.90578548,0.00000000,
0.801624,0.2657,0.4321,0.9688,-0.2760,-0.0417,-0.8638,-0.9025,-2.4401,-0.9904,1004.5991,63.5292,-31.9941,6.9851,49.26679081,-122.90578548,0.00000000,
0.810701,0.2657,0.4321,0.9688,-0.2760,-0.0417,-0.8638,-1.1043,-2.7313,-1.1353,1004.5991,63.5292,-31.9941,6.9851,49.26679081,-122.90578548,0.00000000,
0.819050,0.2657,0.4321,0.9688,-0.2760,-0.0417,-0.8638,-1.1043,-2.7313,-1.1353,1004.5991,70.5673,-28.9192,13.3258,49.26679081,-122.90578548,0.00000000,
0.819558,0.2657,0.4321,0.9688,-0.9543,0.3449,0.5150,-1.1043,-2.7313,-1.1353,1004.5991,70.5673,-28.9192,13.3258,49.26679081,-122.90578548,0.00000000,
0.837276,0.2657,0.4321,0.9688,-0.9543,0.3449,0.5150,-1.1043,-2.7313,-1.1353,1004.6049,70.5673,-28.9192,13.3258,49.26679081,-122.90578548,0.00000000,
0.865761,0.2771,0.3932,0.9532,-0.9543,0.3449,0.5150,-1.1043,-2.7313,-1.1353,1004.6049,70.5673,-28.9192,13.3258,49.26679081,-122.90578548,0.00000000,
0.866536,0.3322,0.3575,0.8327,-0.9543,0.3449,0.5150,-1.1043,-2.7313,-1.1353,1004.6049,70.5673,-28.9192,13.3258,49.26679081,-122.90578548,0.00000000,
0.867064,0.3915,0.3434,0.6576,-0.9543,0.3449,0.5150,-1.1043,-2.7313,-1.1353,1004.6049,70.5673,-28.9192,13.3258,49.26679081,-122.90578548,0.00000000,
0.874748,0.3915,0.3434,0.6576,-0.9543,0.3449,0.5150,-0.8805,-2.4470,-1.5262,1004.6049,70.5673,-28.9192,13.3258,49.26679081,-122.90578548,0.00000000,
0.878169,0.3915,0.3434,0.6576,-0.9543,0.3449,0.5150,-0.8805,-2.4470,-1.5262,1004.5983,70.5673,-28.9192,13.3258,49.26679081,-122.90578548,0.00000000,
0.885025,0.3915,0.3434,0.6576,-0.9543,0.3449,0.5150,-0.8805,-2.4470,-1.5262,1004.5983,79.4858,-26.6736,19.1299,49.26679081,-122.90578548,0.00000000,
0.887147,0.4325,0.3132,0.5825,-0.9543,0.3449,0.5150,-0.8805,-2.4470,-1.5262,1004.5983,79.4858,-26.6736,19.1299,49.26679081,-122.90578548,0.00000000,
0.888671,0.4325,0.3132,0.5825,-0.0439,-0.1621,0.6336,-0.8805,-2.4470,-1.5262,1004.5983,79.4858,-26.6736,19.1299,49.26679081,-122.90578548,0.00000000,
0.918157,0.4325,0.3132,0.5825,-0.0439,-0.1621,0.6336,-0.8805,-2.4470,-1.5262,1004.5937,79.4858,-26.6736,19.1299,49.26679081,-122.90578548,0.00000000,
0.932313,0.4332,0.2860,0.6422,-0.0439,-0.1621,0.6336,-0.8805,-2.4470,-1.5262,1004.5937,79.4858,-26.6736,19.1299,49.26679081,-122.90578548,0.00000000,
0.934281,0.4163,0.2833,0.7209,-0.0439,-0.1621,0.6336,-0.8805,-2.4470,-1.5262,1004.5937,79.4858,-26.6736,19.1299,49.26679081,-122.90578548,0.00000000,
0.935743,0.4175,0.2507,0.7875,-0.0439,-0.1621,0.6336,-0.8805,-2.4470,-1.5262,1004.5937,79.4858,-26.6736,19.1299,49.26679081,-122.90578548,0.00000000,
0.941039,0.4175,0.2507,0.7875,-0.0439,-0.1621,0.6336,-2.0604,-3.5448,-1.9677,1004.5937,79.4858,-26.6736,19.1299,49.26679081,-122.90578548,0.00000000,
0.950206,0.4175,0.2507,0.7875,-0.0439,-0.1621,0.6336,-2.0604,-3.5448,-1.9677,1004.5937,90.4673,-22.3903,28.3619,49.26679081,-122.90578548,0.00000000,
0.951784,0.4175,0.2507,0.7875,-0.2992,-0.4918,-1.3326,-2.0604,-3.5448,-1.9677,1004.5937,90.4673,-22.3903,28.3619,49.26679081,-122.90578548,0.00000000,
0.958682,0.4175,0.2507,0.7875,-0.2992,-0.4918,-1.3326,-2.0604,-3.5448,-1.9677,1004.5927,90.4673,-22.3903,28.3619,49.26679081,-122.90578548,0.00000000,
0.998328,0.4175,0.2507,0.7875,-0.2992,-0.4918,-1.3326,-2.0604,-3.5448,-1.9677,1004.5922,90.4673,-22.3903,28.3619,49.26679081,-122.90578548,0.00000000,
0.999863,0.4333,0.2664,0.8051,-0.2992,-0.4918,-1.3326,-2.0604,-3.5448,-1.9677,1004.5922,90.4673,-22.3903,28.3619,49.26679081,-122.90578548,0.00000000,
1.001139,0.3830,0.2714,0.9463,-0.2992,-0.4918,-1.3326,-2.0604,-3.5448,-1.9677,1004.5922,90.4673,-22.3903,28.3619,49.26679081,-122.90578548,0.00000000,
1.002675,0.4319,0.3190,0.9538,-0.2992,-0.4918,-1.3326,-2.0604,-3.5448,-1.9677,1004.5922,90.4673,-22.3903,28.3619,49.26679081,-122.90578548,0.00000000,
1.006293,0.4319,0.3190,0.9538,-0.2992,-0.4918,-1.3326,-1.6228,-2.9595,-2.1176,1004.5922,90.4673,-22.3903,28.3619,49.26679081,-122.90578548,0.00000000,
1.016942,0.4319,0.3190,0.9538,-0.9387,-0.8189,0.2225,-1.6228,-2.9595,-2.1176,1004.5922,90.4673,-22.3903,28.3619,49.26679081,-122.90578548,0.00000000,
1.038517,0.4319,0.3190,0.9538,-0.9387,-0.8189,0.2225,-1.6228,-2.9595,-2.1176,1004.5524,90.4673,-22.3903,28.3619,49.26679081,-122.90578548,0.00000000,
1.044999,0.0593,0.4540,1.0279,-0.9387,-0.8189,0.2225,-1.6228,-2.9595,-2.1176,1004.5524,90.4673,-22.3903,28.3619,49.26679081,-122.90578548,0.00000000,
1.046751,0.1818,0.5867,0.7332,-0.9387,-0.8189,0.2225,-1.6228,-2.9595,-2.1176,1004.5524,90.4673,-22.3903,28.3619,49.26679081,-122.90578548,0.00000000,
1.048213,0.3424,0.4865,0.7562,-0.9387,-0.8189,0.2225,-1.6228,-2.9595,-2.1176,1004.5524,90.4673,-22.3903,28.3619,49.26679081,-122.90578548,0.00000000,
1.063222,0.3424,0.4865,0.7562,-0.9387,-0.8189,0.2225,-1.6228,-2.9595,-2.1176,1004.5524,101.8553,-21.1651,34.5892,49.26679081,-122.90578548,0.00000000,
1.072680,0.3424,0.4865,0.7562,-0.9387,-0.8189,0.2225,-1.3975,-2.3776,-1.0155,1004.5524,101.8553,-21.1651,34.5892,49.26679081,-122.90578548,0.00000000,
1.078017,0.3424,0.4865,0.7562,-0.9387,-0.8189,0.2225,-1.3975,-2.3776,-1.0155,1004.5407,101.8553,-21.1651,34.5892,49.26679081,-122.90578548,0.00000000,
1.081524,0.3424,0.4865,0.7562,-3.1527,0.8275,2.1089,-1.3975,-2.3776,-1.0155,1004.5407,101.8553,-21.1651,34.5892,49.26679081,-122.90578548,0.00000000,
1.112052,0.5215,0.4040,0.7528,-3.1527,0.8275,2.1089,-1.3975,-2.3776,-1.0155,1004.5407,101.8553,-21.1651,34.5892,49.26679081,-122.90578548,0.00000000,
1.113961,0.7082,0.3861,0.7241,-3.1527,0.8275,2.1089,-1.3975,-2.3776,-1.0155,1004.5407,101.8553,-21.1651,34.5892,49.26679081,-122.90578548,0.00000000,
1.115260,0.8291,0.4887,0.6849,-3.1527,0.8275,2.1089,-1.3975,-2.3776,-1.0155,1004.5407,101.8553,-21.1651,34.5892,49.26679081,-122.90578548,0.00000000,
1.118015,0.8291,0.4887,0.6849,-3.1527,0.8275,2.1089,-1.3975,-2.3776,-1.0155,1004.5126,101.8553,-21.1651,34.5892,49.26679081,-122.90578548,0.00000000,
1.119642,0.8291,0.4887,0.6849,-3.1527,0.8275,2.1089,-1.3975,-2.3776,-1.0155,1004.5126,105.6530,-19.4546,38.9193,49.26679081,-122.90578548,0.00000000,
1.142128,0.8291,0.4887,0.6849,-3.1527,0.8275,2.1089,-1.8792,-4.1880,-0.5907,1004.5126,105.6530,-19.4546,38.9193,49.26679081,-122.90578548,0.00000000,
1.148321,0.8291,0.4887,0.6849,-1.9160,1.4122,1.5502,-1.8792,-4.1880,-0.5907,1004.5126,105.6530,-19.4546,38.9193,49.26679081,-122.90578548,0.00000000,
1.158668,0.8291,0.4887,0.6849,-1.9160,1.4122,1.5502,-1.8792,-4.1880,-0.5907,1004.4890,105.6530,-19.4546,38.9193,49.26679081,-122.90578548,0.00000000,
1.178860,0.7978,0.5312,0.5674,-1.9160,1.4122,1.5502,-1.8792,-4.1880,-0.5907,1004.4890,105.6530,-19.4546,38.9193,49.26679081,-122.90578548,0.00000000,
1.180578,0.6762,0.4315,0.4988,-1.9160,1.4122,1.5502,-1.8792,-4.1880,-0.5907,1004.4890,105.6530,-19.4546,38.9193,49.26679081,-122.90578548,0.00000000,
1.182062,0.6254,0.2883,0.3805,-1.9160,1.4122,1.5502,-1.8792,-4.1880,-0.5907,1004.4890,105.6530,-19.4546,38.9193,49.26679081,-122.90578548,0.00000000,
1.183482,0.6745,0.2608,0.0506,-1.9160,1.4122,1.5502,-1.8792,-4.1880,-0.5907,1004.4890,105.6530,-19.4546,38.9193,49.26679081,-122.90578548,0.00000000,
1.186395,0.6745,0.2608,0.0506,-1.9160,1.4122,1.5502,-1.8792,-4.1880,-0.5907,1004.4890,109.0039,-17.4083,50.9844,49.26679081,-122.90578548,0.00000000,
1.198348,0.6745,0.2608,0.0506,-1.9160,1.4122,1.5502,-1.8792,-4.1880,-0.5907,1004.4474,109.0039,-17.4083,50.9844,49.26679081,-122.90578548,0.00000000,
1.204796,0.6745,0.2608,0.0506,-1.9160,1.4122,1.5502,-1.6401,-2.7083,-0.4379,1004.4474,109.0039,-17.4083,50.9844,49.26679081,-122.90578548,0.00000000,
1.206539,0.7739,0.2099,-0.0731,-1.9160,1.4122,1.5502,-1.6401,-2.7083,-0.4379,1004.4474,109.0039,-17.4083,50.9844,49.26679081,-122.90578548,0.00000000,
1.214253,0.7739,0.2099,-0.0731,-0.4944,1.7275,0.2732,-1.6401,-2.7083,-0.4379,1004.4474,109.0039,-17.4083,50.9844,49.26679081,-122.90578548,0.00000000,
1.237670,0.7739,0.2099,-0.0731,-0.4944,1.7275,0.2732,-1.6401,-2.7083,-0.4379,1004.4020,109.0039,-17.4083,50.9844,49.26679081,-122.90578548,0.00000000,
1.242240,0.7739,0.2099,-0.0731,-0.4944,1.7275,0.2732,-1.6401,-2.7083,-0.4379,1004.4020,112.6377,-16.0923,56.8837,49.26679081,-122.90578548,0.00000000,
1.252167,0.9087,0.1931,-0.0521,-0.4944,1.7275,0.2732,-1.6401,-2.7083,-0.4379,1004.4020,112.6377,-16.0923,56.8837,49.26679081,-122.90578548,0.00000000,
1.253970,0.9546,0.2042,0.0234,-0.4944,1.7275,0.2732,-1.6401,-2.7083,-0.4379,1004.4020,112.6377,-16.0923,56.8837,49.26679081,-122.90578548,0.00000000,
1.255171,0.7868,0.1704,0.9632,-0.4944,1.7275,0.2732,-1.6401,-2.7083,-0.4379,1004.4020,112.6377,-16.0923,56.8837,49.26679081,-122.90578548,0.00000000,
1.270799,0.7868,0.1704,0.9632,-0.4944,1.7275,0.2732,-2.2500,0.4714,-0.6904,1004.4020,112.6377,-16.0923,56.8837,49.26679081,-122.90578548,0.00000000,
1.277981,0.7868,0.1704,0.9632,-0.4944,1.7275,0.2732,-2.2500,0.4714,-0.6904,1004.3666,112.6377,-16.0923,56.8837,49.26679081,-122.90578548,0.00000000,
1.280845,0.7868,0.1704,0.9632,0.2435,-0.0544,-4.9434,-2.2500,0.4714,-0.6904,1004.3666,112.6377,-16.0923,56.8837,49.26679081,-122.90578548,0.00000000,
1.301351,0.7868,0.1704,0.9632,0.2435,-0.0544,-4.9434,-2.2500,0.4714,-0.6904,1004.3666,123.7001,-14.0410,56.7244,49.26679081,-122.90578548,0.00000000,
1.318935,0.7868,0.1704,0.9632,0.2435,-0.0544,-4.9434,-2.2500,0.4714,-0.6904,1004.3342,123.7001,-14.0410,56.7244,49.26679081,-122.90578548,0.00000000,
1.320462,0.9471,0.2354,0.5874,0.2435,-0.0544,-4.9434,-2.2500,0.4714,-0.6904,1004.3342,123.7001,-14.0410,56.7244,49.26679081,-122.90578548,0.00000000,
1.322075,0.8740,0.2515,0.5978,0.2435,-0.0544,-4.9434,-2.2500,0.4714,-0.6904,1004.3342,123.7001,-14.0410,56.7244,49.26679081,-122.90578548,0.00000000,
1.323457,0.8088,0.2809,0.3314,0.2435,-0.0544,-4.9434,-2.2500,0.4714,-0.6904,1004.3342,123.7001,-14.0410,56.7244,49.26679081,-122.90578548,0.00000000,
1.336323,0.8088,0.2809,0.3314,0.2435,-0.0544,-4.9434,-2.0514,-0.4669,-0.4171,1004.3342,123.7001,-14.0410,56.7244,49.26679081,-122.90578548,0.00000000,
1.346791,0.8088,0.2809,0.3314,1.0399,0.2653,0.6053,-2.0514,-0.4669,-0.4171,1004.3342,123.7001,-14.0410,56.7244,49.26679081,-122.90578548,0.00000000,
1.358075,0.8088,0.2809,0.3314,1.0399,0.2653,0.6053,-2.0514,-0.4669,-0.4171,1004.3283,123.7001,-14.0410,56.7244,49.26679081,-122.90578548,0.00000000,
1.365131,0.8088,0.2809,0.3314,1.0399,0.2653,0.6053,-2.0514,-0.4669,-0.4171,1004.3283,130.7331,-11.1279,56.3648,49.26679081,-122.90578548,0.00000000,
1.366043,0.9459,0.1746,0.3614,1.0399,0.2653,0.6053,-2.0514,-0.4669,-0.4171,1004.3283,130.7331,-11.1279,56.3648,49.26679081,-122.90578548,0.00000000,
1.366729,0.9717,0.0800,0.6348,1.0399,0.2653,0.6053,-2.0514,-0.4669,-0.4171,1004.3283,130.7331,-11.1279,56.3648,49.26679081,-122.90578548,0.00000000,
1.367361,0.9209,0.1606,0.5726,1.0399,0.2653,0.6053,-2.0514,-0.4669,-0.4171,1004.3283,130.7331,-11.1279,56.3648,49.26679081,-122.90578548,0.00000000,
1.384621,0.7948,0.2561,0.5859,1.0399,0.2653,0.6053,-2.0514,-0.4669,-0.4171,1004.3283,130.7331,-11.1279,56.3648,49.26679081,-122.90578548,0.00000000,
1.398235,0.7948,0.2561,0.5859,1.0399,0.2653,0.6053,-2.0514,-0.4669,-0.4171,1004.2914,130.7331,-11.1279,56.3648,49.26679081,-122.90578548,0.00000000,
1.402359,0.7948,0.2561,0.5859,1.0399,0.2653,0.6053,-1.6842,-0.3622,-0.3702,1004.2914,130.7331,-11.1279,56.3648,49.26679081,-122.90578548,0.00000000,
1.412255,0.7948,0.2561,0.5859,0.9518,0.3179,-0.4504,-1.6842,-0.3622,-0.3702,1004.2914,130.7331,-11.1279,56.3648,49.26679081,-122.90578548,0.00000000,
1.421828,0.7948,0.2561,0.5859,0.9518,0.3179,-0.4504,-1.6842,-0.3622,-0.3702,1004.2914,137.6022,-8.7959,57.9127,49.26679081,-122.90578548,0.00000000,
1.438112,0.7948,0.2561,0.5859,0.9518,0.3179,-0.4504,-1.6842,-0.3622,-0.3702,1004.2604,137.6022,-8.7959,57.9127,49.26679081,-122.90578548,0.00000000,
1.451228,0.7207,0.2204,0.6423,0.9518,0.3179,-0.4504,-1.6842,-0.3622,-0.3702,1004.2604,137.6022,-8.7959,57.9127,49.26679081,-122.90578548,0.00000000,
1.452849,0.7184,0.1456,0.5212,0.9518,0.3179,-0.4504,-1.6842,-0.3622,-0.3702,1004.2604,137.6022,-8.7959,57.9127,49.26679081,-122.90578548,0.00000000,
1.454502,0.8287,0.0562,0.4917,0.9518,0.3179,-0.4504,-1.6842,-0.3622,-0.3702,1004.2604,137.6022,-8.7959,57.9127,49.26679081,-122.90578548,0.00000000,
1.468807,0.8287,0.0562,0.4917,0.9518,0.3179,-0.4504,-1.8883,-0.8341,-0.2548,1004.2604,137.6022,-8.7959,57.9127,49.26679081,-122.90578548,0.00000000,
1.477861,0.8287,0.0562,0.4917,0.9518,0.3179,-0.4504,-1.8883,-0.8341,-0.2548,1004.2468,137.6022,-8.7959,57.9127,49.26679081,-122.90578548,0.00000000,
1.479303,0.8287,0.0562,0.4917,-0.4199,0.9253,0.8774,-1.8883,-0.8341,-0.2548,1004.2468,137.6022,-8.7959,57.9127,49.26679081,-122.90578548,0.00000000,
1.480790,0.8287,0.0562,0.4917,-0.4199,0.9253,0.8774,-1.8883,-0.8341,-0.2548,1004.2468,141.8088,-6.7221,58.9847,49.26679081,-122.90578548,0.00000000,
1.516862,0.8456,-0.0220,0.3005,-0.4199,0.9253,0.8774,-1.8883,-0.8341,-0.2548,1004.2468,141.8088,-6.7221,58.9847,49.26679081,-122.90578548,0.00000000,
1.518687,0.7413,-0.0213,0.3093,-0.4199,0.9253,0.8774,-1.8883,-0.8341,-0.2548,1004.2468,141.8088,-6.7221,58.9847,49.26679081,-122.90578548,0.00000000,
1.520121,0.7291,-0.0052,0.3200,-0.4199,0.9253,0.8774,-1.8883,-0.8341,-0.2548,1004.2468,141.8088,-6.7221,58.9847,49.26679081,-122.90578548,0.00000000,
1.521677,0.7055,-0.0148,0.2338,-0.4199,0.9253,0.8774,-1.8883,-0.8341,-0.2548,1004.2468,141.8088,-6.7221,58.9847,49.26679081,-122.90578548,0.00000000,
1.522987,0.7055,-0.0148,0.2338,-0.4199,0.9253,0.8774,-1.8883,-0.8341,-0.2548,1004.2495,141.8088,-6.7221,58.9847,49.26679081,-122.90578548,0.00000000,
1.535283,0.7055,-0.0148,0.2338,-0.4199,0.9253,0.8774,-2.3518,-0.4306,-0.3428,1004.2495,141.8088,-6.7221,58.9847,49.26679081,-122.90578548,0.00000000,
1.544611,0.7055,-0.0148,0.2338,-0.4199,0.9253,0.8774,-2.3518,-0.4306,-0.3428,1004.2495,155.0180,-2.7820,60.4594,49.26679081,-122.90578548,0.00000000,
1.546427,0.7055,-0.0148,0.2338,-0.3607,-0.3410,-0.9509,-2.3518,-0.4306,-0.3428,1004.2495,155.0180,-2.7820,60.4594,49.26679081,-122.90578548,0.00000000,
1.558307,0.7055,-0.0148,0.2338,-0.3607,-0.3410,-0.9509,-2.3518,-0.4306,-0.3428,1004.2685,155.0180,-2.7820,60.4594,49.26679081,-122.90578548,0.00000000,
1.582358,0.6762,-0.0192,0.2179,-0.3607,-0.3410,-0.9509,-2.3518,-0.4306,-0.3428,1004.2685,155.0180,-2.7820,60.4594,49.26679081,-122.90578548,0.00000000,
1.583132,0.7262,-0.0515,0.2428,-0.3607,-0.3410,-0.9509,-2.3518,-0.4306,-0.3428,1004.2685,155.0180,-2.7820,60.4594,49.26679081,-122.90578548,0.00000000,
1.583643,0.7639,-0.1282,0.2030,-0.3607,-0.3410,-0.9509,-2.3518,-0.4306,-0.3428,1004.2685,155.0180,-2.7820,60.4594,49.26679081,-122.90578548,0.00000000,
1.591288,0.8463,-0.1376,0.2385,-0.3607,-0.3410,-0.9509,-2.3518,-0.4306,-0.3428,1004.2685,155.0180,-2.7820,60.4594,49.26679081,-122.90578548,0.00000000,
1.597981,0.8463,-0.1376,0.2385,-0.3607,-0.3410,-0.9509,-2.3518,-0.4306,-0.3428,1004.2932,155.0180,-2.7820,60.4594,49.26679081,-122.90578548,0.00000000,
1.600202,0.8463,-0.1376,0.2385,-0.3607,-0.3410,-0.9509,-2.5556,-0.1023,-0.3151,1004.2932,155.0180,-2.7820,60.4594,49.26679081,-122.90578548,0.00000000,
1.610455,0.8463,-0.1376,0.2385,-0.3607,-0.3410,-0.9509,-2.5556,-0.1023,-0.3151,1004.2932,169.9043,0.7174,61.4045,49.26679081,-122.90578548,0.00000000,
1.612057,0.8463,-0.1376,0.2385,-1.1173,-0.0937,-1.9349,-2.5556,-0.1023,-0.3151,1004.2932,169.9043,0.7174,61.4045,49.26679081,-122.90578548,0.00000000,
1.638115,0.8463,-0.1376,0.2385,-1.1173,-0.0937,-1.9349,-2.5556,-0.1023,-0.3151,1004.3090,169.9043,0.7174,61.4045,49.26679081,-122.90578548,0.00000000,
1.657847,0.8824,-0.1394,0.2754,-1.1173,-0.0937,-1.9349,-2.5556,-0.1023,-0.3151,1004.3090,169.9043,0.7174,61.4045,49.26679081,-122.90578548,0.00000000,
1.658686,0.8736,-0.1053,0.2884,-1.1173,-0.0937,-1.9349,-2.5556,-0.1023,-0.3151,1004.3090,169.9043,0.7174,61.4045,49.26679081,-122.90578548,0.00000000,
1.659245,0.8766,-0.1284,0.2189,-1.1173,-0.0937,-1.9349,-2.5556,-0.1023,-0.3151,1004.3090,169.9043,0.7174,61.4045,49.26679081,-122.90578548,0.00000000,
1.667159,0.8766,-0.1284,0.2189,-1.1173,-0.0937,-1.9349,-2.5022,-0.3496,-0.9142,1004.3090,169.9043,0.7174,61.4045,49.26679081,-122.90578548,0.00000000,
1.676874,0.8766,-0.1284,0.2189,-0.0646,-0.8524,-1.5260,-2.5022,-0.3496,-0.9142,1004.3090,169.9043,0.7174,61.4045,49.26679081,-122.90578548,0.00000000,
1.678702,0.8766,-0.1284,0.2189,-0.0646,-0.8524,-1.5260,-2.5022,-0.3496,-0.9142,1004.3271,169.9043,0.7174,61.4045,49.26679081,-122.90578548,0.00000000,
1.684220,0.9042,-0.1376,0.2153,-0.0646,-0.8524,-1.5260,-2.5022,-0.3496,-0.9142,1004.3271,169.9043,0.7174,61.4045,49.26679081,-122.90578548,0.00000000,
1.686480,0.9223,-0.0711,0.2380,-0.0646,-0.8524,-1.5260,-2.5022,-0.3496,-0.9142,1004.3271,169.9043,0.7174,61.4045,49.26679081,-122.90578548,0.00000000,
1.718582,0.9223,-0.0711,0.2380,-0.0646,-0.8524,-1.5260,-2.5022,-0.3496,-0.9142,1004.3271,169.9043,0.7174,61.4045,49.26679081,-122.90578548,0.00000000,
1.723127,0.9223,-0.0711,0.2380,-0.0646,-0.8524,-1.5260,-2.5022,-0.3496,-0.9142,1004.3271,188.7085,2.6426,64.5509,49.26679081,-122.90578548,0.00000000,
1.724644,0.8853,-0.0718,0.2884,-0.0646,-0.8524,-1.5260,-2.5022,-0.3496,-0.9142,1004.3271,188.7085,2.6426,64.5509,49.26679081,-122.90578548,0.00000000,
1.726106,0.9590,-0.1212,0.3387,-0.0646,-0.8524,-1.5260,-2.5022,-0.3496,-0.9142,1004.3271,188.7085,2.6426,64.5509,49.26679081,-122.90578548,0.00000000,
1.732760,0.9590,-0.1212,0.3387,-0.0646,-0.8524,-1.5260,-2.6103,-1.3376,-1.0420,1004.3271,188.7085,2.6426,64.5509,49.26679081,-122.90578548,0.00000000,
1.742614,0.9590,-0.1212,0.3387,0.2047,-0.6413,-0.6155,-2.6103,-1.3376,-1.0420,1004.3271,188.7085,2.6426,64.5509,49.26679081,-122.90578548,0.00000000,
1.758906,0.9590,-0.1212,0.3387,0.2047,-0.6413,-0.6155,-2.6103,-1.3376,-1.0420,1004.3493,188.7085,2.6426,64.5509,49.26679081,-122.90578548,0.00000000,
1.780074,0.9590,-0.1212,0.3387,0.2047,-0.6413,-0.6155,-2.6103,-1.3376,-1.0420,1004.3493,202.3130,3.2119,70.9512,49.26679081,-122.90578548,0.00000000,
1.791917,0.9815,-0.1168,0.3894,0.2047,-0.6413,-0.6155,-2.6103,-1.3376,-1.0420,1004.3493,202.3130,3.2119,70.9512,49.26679081,-122.90578548,0.00000000,
1.793582,0.8830,-0.0869,0.5000,0.2047,-0.6413,-0.6155,-2.6103,-1.3376,-1.0420,1004.3493,202.3130,3.2119,70.9512,49.26679081,-122.90578548,0.00000000,
1.795009,0.8334,-0.0924,0.5410,0.2047,-0.6413,-0.6155,-2.6103,-1.3376,-1.0420,1004.3493,202.3130,3.2119,70.9512,49.26679081,-122.90578548,0.00000000,
1.797788,0.8334,-0.0924,0.5410,0.2047,-0.6413,-0.6155,-2.6103,-1.3376,-1.0420,1004.3766,202.3130,3.2119,70.9512,49.26679081,-122.90578548,0.00000000,
1.799223,0.8334,-0.0924,0.5410,0.2047,-0.6413,-0.6155,-1.7523,-1.3489,-0.9846,1004.3766,202.3130,3.2119,70.9512,49.26679081,-122.90578548,0.00000000,
1.808570,0.8334,-0.0924,0.5410,0.3833,-0.6277,1.0052,-1.7523,-1.3489,-0.9846,1004.3766,202.3130,3.2119,70.9512,49.26679081,-122.90578548,0.00000000,
1.838329,0.8334,-0.0924,0.5410,0.3833,-0.6277,1.0052,-1.7523,-1.3489,-0.9846,1004.4142,202.3130,3.2119,70.9512,49.26679081,-122.90578548,0.00000000,
1.844743,0.8802,-0.0842,0.4583,0.3833,-0.6277,1.0052,-1.7523,-1.3489,-0.9846,1004.4142,202.3130,3.2119,70.9512,49.26679081,-122.90578548,0.00000000,
1.846392,0.9780,0.0075,0.4916,0.3833,-0.6277,1.0052,-1.7523,-1.3489,-0.9846,1004.4142,202.3130,3.2119,70.9512,49.26679081,-122.90578548,0.00000000,
1.847727,0.9527,-0.0070,0.4813,0.3833,-0.6277,1.0052,-1.7523,-1.3489,-0.9846,1004.4142,202.3130,3.2119,70.9512,49.26679081,-122.90578548,0.00000000,
1.849003,0.9527,-0.0070,0.4813,0.3833,-0.6277,1.0052,-1.7523,-1.3489,-0.9846,1004.4142,208.6124,1.9054,75.3170,49.26679081,-122.90578548,0.00000000,
1.865638,0.9527,-0.0070,0.4813,0.3833,-0.6277,1.0052,-1.1931,-0.8444,-1.1487,1004.4142,208.6124,1.9054,75.3170,49.26679081,-122.90578548,0.00000000,
1.866976,0.9938,0.0402,0.4941,0.3833,-0.6277,1.0052,-1.1931,-0.8444,-1.1487,1004.4142,208.6124,1.9054,75.3170,49.26679081,-122.90578548,0.00000000,
1.875652,0.9938,0.0402,0.4941,-0.2457,-0.8215,2.7435,-1.1931,-0.8444,-1.1487,1004.4142,208.6124,1.9054,75.3170,49.26679081,-122.90578548,0.00000000,
1.878451,0.9938,0.0402,0.4941,-0.2457,-0.8215,2.7435,-1.1931,-0.8444,-1.1487,1004.4694,208.6124,1.9054,75.3170,49.26679081,-122.90578548,0.00000000,
1.903253,0.9938,0.0402,0.4941,-0.2457,-0.8215,2.7435,-1.1931,-0.8444,-1.1487,1004.4694,209.2152,-0.8138,76.2823,49.26679081,-122.90578548,0.00000000,
1.918750,0.9938,0.0402,0.4941,-0.2457,-0.8215,2.7435,-1.1931,-0.8444,-1.1487,1004.5480,209.2152,-0.8138,76.2823,49.26679081,-122.90578548,0.00000000,
1.932994,0.9938,0.0402,0.4941,-0.2457,-0.8215,2.7435,-0.7832,-0.2353,-1.3500,1004.5480,209.2152,-0.8138,76.2823,49.26679081,-122.90578548,0.00000000,
1.934709,0.9891,0.0294,0.4597,-0.2457,-0.8215,2.7435,-0.7832,-0.2353,-1.3500,1004.5480,209.2152,-0.8138,76.2823,49.26679081,-122.90578548,0.00000000,
1.936150,0.9456,0.1009,0.3274,-0.2457,-0.8215,2.7435,-0.7832,-0.2353,-1.3500,1004.5480,209.2152,-0.8138,76.2823,49.26679081,-122.90578548,0.00000000,
1.937674,0.9345,0.0765,0.1576,-0.2457,-0.8215,2.7435,-0.7832,-0.2353,-1.3500,1004.5480,209.2152,-0.8138,76.2823,49.26679081,-122.90578548,0.00000000,
1.939146,0.8470,0.2626,0.2205,-0.2457,-0.8215,2.7435,-0.7832,-0.2353,-1.3500,1004.5480,209.2152,-0.8138,76.2823,49.26679081,-122.90578548,0.00000000,
1.941969,0.8470,0.2626,0.2205,0.5722,-0.5439,2.1951,-0.7832,-0.2353,-1.3500,1004.5480,209.2152,-0.8138,76.2823,49.26679081,-122.90578548,0.00000000,
1.959680,0.8470,0.2626,0.2205,0.5722,-0.5439,2.1951,-0.7832,-0.2353,-1.3500,1004.5480,210.5878,-4.8008,74.9320,49.26679081,-122.90578548,0.00000000,
1.961570,0.8470,0.2626,0.2205,0.5722,-0.5439,2.1951,-0.7832,-0.2353,-1.3500,1004.6188,210.5878,-4.8008,74.9320,49.26679081,-122.90578548,0.00000000,
1.999760,0.8470,0.2626,0.2205,0.5722,-0.5439,2.1951,-1.0763,0.1749,-2.1593,1004.6188,210.5878,-4.8008,74.9320,49.26679081,-122.90578548,0.00000000,
2.001852,0.8470,0.2626,0.2205,0.5722,-0.5439,2.1951,-1.0763,0.1749,-2.1593,1004.6179,210.5878,-4.8008,74.9320,49.26679081,-122.90578548,0.00000000,
2.003152,0.7808,0.3460,0.0586,0.5722,-0.5439,2.1951,-1.0763,0.1749,-2.1593,1004.6179,210.5878,-4.8008,74.9320,49.26679081,-122.90578548,0.00000000,
2.004541,0.7947,0.3627,0.0138,0.5722,-0.5439,2.1951,-1.0763,0.1749,-2.1593,1004.6179,210.5878,-4.8008,74.9320,49.26679081,-122.90578548,0.00000000,
2.005997,0.8244,0.3657,0.0931,0.5722,-0.5439,2.1951,-1.0763,0.1749,-2.1593,1004.6179,210.5878,-4.8008,74.9320,49.26679081,-122.90578548,0.00000000,
2.007349,0.6816,0.2923,0.1448,0.5722,-0.5439,2.1951,-1.0763,0.1749,-2.1593,1004.6179,210.5878,-4.8008,74.9320,49.26679081,-122.90578548,0.00000000,
2.008768,0.6816,0.2923,0.1448,-0.0852,-0.0558,-0.5948,-1.0763,0.1749,-2.1593,1004.6179,210.5878,-4.8008,74.9320,49.26679081,-122.90578548,0.00000000,
2.026188,0.6816,0.2923,0.1448,-0.0852,-0.0558,-0.5948,-1.0763,0.1749,-2.1593,1004.6179,220.1526,-12.4707,74.0693,49.26679081,-122.90578548,0.00000000,
2.038727,0.6816,0.2923,0.1448,-0.0852,-0.0558,-0.5948,-1.0763,0.1749,-2.1593,1004.5681,220.1526,-12.4707,74.0693,49.26679081,-122.90578548,0.00000000,
2.063974,0.6816,0.2923,0.1448,-0.0852,-0.0558,-0.5948,-0.5770,-0.1455,-3.0152,1004.5681,220.1526,-12.4707,74.0693,49.26679081,-122.90578548,0.00000000,
2.065924,0.6188,0.4306,0.1470,-0.0852,-0.0558,-0.5948,-0.5770,-0.1455,-3.0152,1004.5681,220.1526,-12.4707,74.0693,49.26679081,-122.90578548,0.00000000,
2.067271,0.8302,0.4957,0.2434,-0.0852,-0.0558,-0.5948,-0.5770,-0.1455,-3.0152,1004.5681,220.1526,-12.4707,74.0693,49.26679081,-122.90578548,0.00000000,
2.068705,1.0445,0.3900,0.2170,-0.0852,-0.0558,-0.5948,-0.5770,-0.1455,-3.0152,1004.5681,220.1526,-12.4707,74.0693,49.26679081,-122.90578548,0.00000000,
2.072974,1.0445,0.3900,0.2170,-0.7044,-0.2068,-1.4486,-0.5770,-0.1455,-3.0152,1004.5681,220.1526,-12.4707,74.0693,49.26679081,-122.90578548,0.00000000,
2.078464,1.0445,0.3900,0.2170,-0.7044,-0.2068,-1.4486,-0.5770,-0.1455,-3.0152,1004.5324,220.1526,-12.4707,74.0693,49.26679081,-122.90578548,0.00000000,
2.081956,1.0445,0.3900,0.2170,-0.7044,-0.2068,-1.4486,-0.5770,-0.1455,-3.0152,1004.5324,230.9622,-23.0989,74.3029,49.26679081,-122.90578548,0.00000000,
2.119009,1.0445,0.3900,0.2170,-0.7044,-0.2068,-1.4486,-0.5770,-0.1455,-3.0152,1004.5026,230.9622,-23.0989,74.3029,49.26679081,-122.90578548,0.00000000,
2.129873,1.0858,0.2719,0.2797,-0.7044,-0.2068,-1.4486,-0.5770,-0.1455,-3.0152,1004.5026,230.9622,-23.0989,74.3029,49.26679081,-122.90578548,0.00000000,
2.131505,1.1996,0.4205,0.2320,-0.7044,-0.2068,-1.4486,-0.5770,-0.1455,-3.0152,1004.5026,230.9622,-23.0989,74.3029,49.26679081,-122.90578548,0.00000000,
2.132935,1.2435,0.5552,0.2077,-0.7044,-0.2068,-1.4486,-0.5770,-0.1455,-3.0152,1004.5026,230.9622,-23.0989,74.3029,49.26679081,-122.90578548,0.00000000,
2.134668,1.2435,0.5552,0.2077,-0.7044,-0.2068,-1.4486,-0.3496,-1.2711,-3.5547,1004.5026,230.9622,-23.0989,74.3029,49.26679081,-122.90578548,0.00000000,
2.141420,1.2435,0.5552,0.2077,1.4255,-1.2218,0.3887,-0.3496,-1.2711,-3.5547,1004.5026,230.9622,-23.0989,74.3029,49.26679081,-122.90578548,0.00000000,
2.142996,1.2435,0.5552,0.2077,1.4255,-1.2218,0.3887,-0.3496,-1.2711,-3.5547,1004.5026,240.6663,-34.1306,76.7187,49.26679081,-122.90578548,0.00000000,
2.159437,1.2435,0.5552,0.2077,1.4255,-1.2218,0.3887,-0.3496,-1.2711,-3.5547,1004.4807,240.6663,-34.1306,76.7187,49.26679081,-122.90578548,0.00000000,
2.164501,1.2871,0.6406,0.2369,1.4255,-1.2218,0.3887,-0.3496,-1.2711,-3.5547,1004.4807,240.6663,-34.1306,76.7187,49.26679081,-122.90578548,0.00000000,
2.166444,1.5005,0.7383,0.2253,1.4255,-1.2218,0.3887,-0.3496,-1.2711,-3.5547,1004.4807,240.6663,-34.1306,76.7187,49.26679081,-122.90578548,0.00000000,
2.195398,1.5005,0.7383,0.2253,1.4255,-1.2218,0.3887,-1.1012,-2.4264,-2.4167,1004.4807,240.6663,-34.1306,76.7187,49.26679081,-122.90578548,0.00000000,
2.197811,1.4808,0.7313,0.2274,1.4255,-1.2218,0.3887,-1.1012,-2.4264,-2.4167,1004.4807,240.6663,-34.1306,76.7187,49.26679081,-122.90578548,0.00000000,
2.198481,1.3213,0.7013,0.2525,1.4255,-1.2218,0.3887,-1.1012,-2.4264,-2.4167,1004.4807,240.6663,-34.1306,76.7187,49.26679081,-122.90578548,0.00000000,
2.199165,1.3213,0.7013,0.2525,1.4255,-1.2218,0.3887,-1.1012,-2.4264,-2.4167,1004.4582,240.6663,-34.1306,76.7187,49.26679081,-122.90578548,0.00000000,
2.203994,1.3213,0.7013,0.2525,1.4255,-1.2218,0.3887,-1.1012,-2.4264,-2.4167,1004.4582,247.1503,-38.5043,81.5789,49.26679081,-122.90578548,0.00000000,
2.204824,1.3213,0.7013,0.2525,4.7627,-0.7689,1.1661,-1.1012,-2.4264,-2.4167,1004.4582,247.1503,-38.5043,81.5789,49.26679081,-122.90578548,0.00000000,
2.238575,1.3213,0.7013,0.2525,4.7627,-0.7689,1.1661,-1.1012,-2.4264,-2.4167,1004.4443,247.1503,-38.5043,81.5789,49.26679081,-122.90578548,0.00000000,
2.263480,1.3213,0.7013,0.2525,4.7627,-0.7689,1.1661,-0.6817,-2.9793,-1.1656,1004.4443,247.1503,-38.5043,81.5789,49.26679081,-122.90578548,0.00000000,
2.268756,1.2332,0.7913,0.2007,4.7627,-0.7689,1.1661,-0.6817,-2.9793,-1.1656,1004.4443,247.1503,-38.5043,81.5789,49.26679081,-122.90578548,0.00000000,
2.270943,1.1028,0.8012,0.1978,4.7627,-0.7689,1.1661,-0.6817,-2.9793,-1.1656,1004.4443,247.1503,-38.5043,81.5789,49.26679081,-122.90578548,0.00000000,
2.272239,0.9399,0.7983,0.2345,4.7627,-0.7689,1.1661,-0.6817,-2.9793,-1.1656,1004.4443,247.1503,-38.5043,81.5789,49.26679081,-122.90578548,0.00000000,
2.273886,0.9399,0.7983,0.2345,5.8436,0.6607,2.0664,-0.6817,-2.9793,-1.1656,1004.4443,247.1503,-38.5043,81.5789,49.26679081,-122.90578548,0.00000000,
2.275307,0.9399,0.7983,0.2345,5.8436,0.6607,2.0664,-0.6817,-2.9793,-1.1656,1004.4443,248.7536,-40.0724,88.7023,49.26679081,-122.90578548,0.00000000,
2.276734,0.8004,0.8446,0.2348,5.8436,0.6607,2.0664,-0.6817,-2.9793,-1.1656,1004.4443,248.7536,-40.0724,88.7023,49.26679081,-122.90578548,0.00000000,
2.278876,0.8004,0.8446,0.2348,5.8436,0.6607,2.0664,-0.6817,-2.9793,-1.1656,1004.4304,248.7536,-40.0724,88.7023,49.26679081,-122.90578548,0.00000000,
2.320828,0.8004,0.8446,0.2348,5.8436,0.6607,2.0664,-0.6817,-2.9793,-1.1656,1004.4367,248.7536,-40.0724,88.7023,49.26679081,-122.90578548,0.00000000,
2.326166,0.7486,0.8827,0.2165,5.8436,0.6607,2.0664,-0.6817,-2.9793,-1.1656,1004.4367,248.7536,-40.0724,88.7023,49.26679081,-122.90578548,0.00000000,
2.328876,0.6875,0.8827,0.1588,5.8436,0.6607,2.0664,-0.6817,-2.9793,-1.1656,1004.4367,248.7536,-40.0724,88.7023,49.26679081,-122.90578548,0.00000000,
2.330555,0.6423,0.8683,0.0714,5.8436,0.6607,2.0664,-0.6817,-2.9793,-1.1656,1004.4367,248.7536,-40.0724,88.7023,49.26679081,-122.90578548,0.00000000,
2.331924,0.6423,0.8683,0.0714,5.8436,0.6607,2.0664,0.4410,-2.1272,-0.6221,1004.4367,248.7536,-40.0724,88.7023,49.26679081,-122.90578548,0.00000000,
2.337832,0.6423,0.8683,0.0714,1.5853,1.0603,2.8006,0.4410,-2.1272,-0.6221,1004.4367,248.7536,-40.0724,88.7023,49.26679081,-122.90578548,0.00000000,
2.359189,0.6423,0.8683,0.0714,1.5853,1.0603,2.8006,0.4410,-2.1272,-0.6221,1004.4536,248.7536,-40.0724,88.7023,49.26679081,-122.90578548,0.00000000,
2.385152,0.6423,0.8683,0.0714,1.5853,1.0603,2.8006,0.4410,-2.1272,-0.6221,1004.4536,253.8625,-138.1238,85.3240,49.26679081,-122.90578548,0.00000000,
2.394188,0.6423,0.8683,0.0714,1.5853,1.0603,2.8006,-0.9736,-1.9342,-0.3558,1004.4536,253.8625,-138.1238,85.3240,49.26679081,-122.90578548,0.00000000,
2.398726,0.6423,0.8683,0.0714,1.5853,1.0603,2.8006,-0.9736,-1.9342,-0.3558,1004.4467,253.8625,-138.1238,85.3240,49.26679081,-122.90578548,0.00000000,
2.403760,0.6079,0.8746,0.0570,1.5853,1.0603,2.8006,-0.9736,-1.9342,-0.3558,1004.4467,253.8625,-138.1238,85.3240,49.26679081,-122.90578548,0.00000000,
2.405441,0.7378,0.6696,0.1636,1.5853,1.0603,2.8006,-0.9736,-1.9342,-0.3558,1004.4467,253.8625,-138.1238,85.3240,49.26679081,-122.90578548,0.00000000,
2.406965,0.6728,0.8593,0.0234,1.5853,1.0603,2.8006,-0.9736,-1.9342,-0.3558,1004.4467,253.8625,-138.1238,85.3240,49.26679081,-122.90578548,0.00000000,
2.408403,0.5694,0.9145,-0.0953,1.5853,1.0603,2.8006,-0.9736,-1.9342,-0.3558,1004.4467,253.8625,-138.1238,85.3240,49.26679081,-122.90578548,0.00000000,
2.410081,0.5694,0.9145,-0.0953,-0.7990,1.3308,2.0175,-0.9736,-1.9342,-0.3558,1004.4467,253.8625,-138.1238,85.3240,49.26679081,-122.90578548,0.00000000,
2.438756,0.5694,0.9145,-0.0953,-0.7990,1.3308,2.0175,-0.9736,-1.9342,-0.3558,1004.4489,253.8625,-138.1238,85.3240,49.26679081,-122.90578548,0.00000000,
2.440449,0.5694,0.9145,-0.0953,-0.7990,1.3308,2.0175,-0.9736,-1.9342,-0.3558,1004.4489,267.2196,-135.0555,83.0337,49.26679081,-122.90578548,0.00000000,
2.460800,0.5694,0.9145,-0.0953,-0.7990,1.3308,2.0175,-0.6235,-1.1012,0.2115,1004.4489,267.2196,-135.0555,83.0337,49.26679081,-122.90578548,0.00000000,
2.470208,0.5694,0.9145,-0.0953,-0.9700,0.6179,1.2553,-0.6235,-1.1012,0.2115,1004.4489,267.2196,-135.0555,83.0337,49.26679081,-122.90578548,0.00000000,
2.471463,0.5240,0.8796,-0.0671,-0.9700,0.6179,1.2553,-0.6235,-1.1012,0.2115,1004.4489,267.2196,-135.0555,83.0337,49.26679081,-122.90578548,0.00000000,
2.472527,0.6202,0.8626,-0.0822,-0.9700,0.6179,1.2553,-0.6235,-1.1012,0.2115,1004.4489,267.2196,-135.0555,83.0337,49.26679081,-122.90578548,0.00000000,
2.473380,0.6692,0.8352,-0.0965,-0.9700,0.6179,1.2553,-0.6235,-1.1012,0.2115,1004.4489,267.2196,-135.0555,83.0337,49.26679081,-122.90578548,0.00000000,
2.479452,0.6692,0.8352,-0.0965,-0.9700,0.6179,1.2553,-0.6235,-1.1012,0.2115,1004.4418,267.2196,-135.0555,83.0337,49.26679081,-122.90578548,0.00000000,
2.484585,0.6534,0.8579,-0.1657,-0.9700,0.6179,1.2553,-0.6235,-1.1012,0.2115,1004.4418,267.2196,-135.0555,83.0337,49.26679081,-122.90578548,0.00000000,
2.506788,0.6534,0.8579,-0.1657,-0.9700,0.6179,1.2553,-0.6235,-1.1012,0.2115,1004.4418,272.6831,-135.1398,82.7755,49.26679081,-122.90578548,0.00000000,
2.518554,0.6534,0.8579,-0.1657,-0.9700,0.6179,1.2553,-0.6235,-1.1012,0.2115,1004.4350,272.6831,-135.1398,82.7755,49.26679081,-122.90578548,0.00000000,
2.526239,0.6534,0.8579,-0.1657,-0.9700,0.6179,1.2553,0.1622,-0.0810,0.6532,1004.4350,272.6831,-135.1398,82.7755,49.26679081,-122.90578548,0.00000000,
2.536885,0.6534,0.8579,-0.1657,-1.3939,1.2427,0.0733,0.1622,-0.0810,0.6532,1004.4350,272.6831,-135.1398,82.7755,49.26679081,-122.90578548,0.00000000,
2.541894,0.6856,0.9176,-0.2450,-1.3939,1.2427,0.0733,0.1622,-0.0810,0.6532,1004.4350,272.6831,-135.1398,82.7755,49.26679081,-122.90578548,0.00000000,
2.545655,0.6635,0.8780,-0.2042,-1.3939,1.2427,0.0733,0.1622,-0.0810,0.6532,1004.4350,272.6831,-135.1398,82.7755,49.26679081,-122.90578548,0.00000000,
2.547668,0.6644,0.8080,-0.1355,-1.3939,1.2427,0.0733,0.1622,-0.0810,0.6532,1004.4350,272.6831,-135.1398,82.7755,49.26679081,-122.90578548,0.00000000,
2.559106,0.6644,0.8080,-0.1355,-1.3939,1.2427,0.0733,0.1622,-0.0810,0.6532,1004.4238,272.6831,-135.1398,82.7755,49.26679081,-122.90578548,0.00000000,
2.563027,0.6644,0.8080,-0.1355,-1.3939,1.2427,0.0733,0.1622,-0.0810,0.6532,1004.4238,275.1548,-136.6720,82.1538,49.26679081,-122.90578548,0.00000000,
2.591946,0.6644,0.8080,-0.1355,-1.3939,1.2427,0.0733,0.8111,0.5029,0.8534,1004.4238,275.1548,-136.6720,82.1538,49.26679081,-122.90578548,0.00000000,
2.598199,0.6644,0.8080,-0.1355,-1.3939,1.2427,0.0733,0.8111,0.5029,0.8534,1004.4174,275.1548,-136.6720,82.1538,49.26679081,-122.90578548,0.00000000,
2.600439,0.6540,0.7456,-0.1082,-1.3939,1.2427,0.0733,0.8111,0.5029,0.8534,1004.4174,275.1548,-136.6720,82.1538,49.26679081,-122.90578548,0.00000000,
2.601188,0.6407,0.7383,-0.1420,-1.3939,1.2427,0.0733,0.8111,0.5029,0.8534,1004.4174,275.1548,-136.6720,82.1538,49.26679081,-122.90578548,0.00000000,
2.601904,0.6423,0.7291,-0.1651,-1.3939,1.2427,0.0733,0.8111,0.5029,0.8534,1004.4174,275.1548,-136.6720,82.1538,49.26679081,-122.90578548,0.00000000,
2.602443,0.6423,0.7291,-0.1651,-1.1917,1.6028,-0.6680,0.8111,0.5029,0.8534,1004.4174,275.1548,-136.6720,82.1538,49.26679081,-122.90578548,0.00000000,
2.619795,0.6423,0.7291,-0.1651,-1.1917,1.6028,-0.6680,0.8111,0.5029,0.8534,1004.4174,274.5497,-138.8939,81.2873,49.26679081,-122.90578548,0.00000000,
2.638250,0.6423,0.7291,-0.1651,-1.1917,1.6028,-0.6680,0.8111,0.5029,0.8534,1004.4157,274.5497,-138.8939,81.2873,49.26679081,-122.90578548,0.00000000,
2.643755,0.6511,0.7095,-0.1629,-1.1917,1.6028,-0.6680,0.8111,0.5029,0.8534,1004.4157,274.5497,-138.8939,81.2873,49.26679081,-122.90578548,0.00000000,
2.645240,0.6248,0.7251,-0.1654,-1.1917,1.6028,-0.6680,0.8111,0.5029,0.8534,1004.4157,274.5497,-138.8939,81.2873,49.26679081,-122.90578548,0.00000000,
2.647999,0.6204,0.6589,-0.0700,-1.1917,1.6028,-0.6680,0.8111,0.5029,0.8534,1004.4157,274.5497,-138.8939,81.2873,49.26679081,-122.90578548,0.00000000,
2.656760,0.6204,0.6589,-0.0700,-1.1917,1.6028,-0.6680,0.2381,1.0879,0.4982,1004.4157,274.5497,-138.8939,81.2873,49.26679081,-122.90578548,0.00000000,
2.667219,0.6824,0.5547,0.0362,-1.1917,1.6028,-0.6680,0.2381,1.0879,0.4982,1004.4157,274.5497,-138.8939,81.2873,49.26679081,-122.90578548,0.00000000,
2.668745,0.6824,0.5547,0.0362,-1.4980,0.4759,-0.6837,0.2381,1.0879,0.4982,1004.4157,274.5497,-138.8939,81.2873,49.26679081,-122.90578548,0.00000000,
2.677880,0.6824,0.5547,0.0362,-1.4980,0.4759,-0.6837,0.2381,1.0879,0.4982,1004.4103,274.5497,-138.8939,81.2873,49.26679081,-122.90578548,0.00000000,
2.685407,0.6824,0.5547,0.0362,-1.4980,0.4759,-0.6837,0.2381,1.0879,0.4982,1004.4103,271.8595,-139.6377,84.5603,49.26679081,-122.90578548,0.00000000,
2.718080,0.6824,0.5547,0.0362,-1.4980,0.4759,-0.6837,0.2381,1.0879,0.4982,1004.4047,271.8595,-139.6377,84.5603,49.26679081,-122.90578548,0.00000000,
2.722986,0.6824,0.5547,0.0362,-1.4980,0.4759,-0.6837,-0.0066,0.3109,-0.2169,1004.4047,271.8595,-139.6377,84.5603,49.26679081,-122.90578548,0.00000000,
2.733946,0.6824,0.5547,0.0362,-1.2010,-0.4461,0.0169,-0.0066,0.3109,-0.2169,1004.4047,271.8595,-139.6377,84.5603,49.26679081,-122.90578548,0.00000000,
2.735568,0.7480,0.5799,0.0527,-1.2010,-0.4461,0.0169,-0.0066,0.3109,-0.2169,1004.4047,271.8595,-139.6377,84.5603,49.26679081,-122.90578548,0.00000000,
2.736934,0.7370,0.6536,-0.0286,-1.2010,-0.4461,0.0169,-0.0066,0.3109,-0.2169,1004.4047,271.8595,-139.6377,84.5603,49.26679081,-122.90578548,0.00000000,
2.738462,0.6380,0.6498,-0.0453,-1.2010,-0.4461,0.0169,-0.0066,0.3109,-0.2169,1004.4047,271.8595,-139.6377,84.5603,49.26679081,-122.90578548,0.00000000,
2.743935,0.6380,0.6498,-0.0453,-1.2010,-0.4461,0.0169,-0.0066,0.3109,-0.2169,1004.4047,273.4069,-138.3668,85.1465,49.26679081,-122.90578548,0.00000000,
2.759026,0.6380,0.6498,-0.0453,-1.2010,-0.4461,0.0169,-0.0066,0.3109,-0.2169,1004.4130,273.4069,-138.3668,85.1465,49.26679081,-122.90578548,0.00000000,
2.790339,0.6380,0.6498,-0.0453,-1.2010,-0.4461,0.0169,-0.7374,0.3131,0.1724,1004.4130,273.4069,-138.3668,85.1465,49.26679081,-122.90578548,0.00000000,
2.798359,0.6380,0.6498,-0.0453,-1.2010,-0.4461,0.0169,-0.7374,0.3131,0.1724,1004.4218,273.4069,-138.3668,85.1465,49.26679081,-122.90578548,0.00000000,
2.800986,0.6380,0.6498,-0.0453,-0.8810,-0.3133,-0.0994,-0.7374,0.3131,0.1724,1004.4218,273.4069,-138.3668,85.1465,49.26679081,-122.90578548,0.00000000,
2.802728,0.5993,0.6845,-0.0604,-0.8810,-0.3133,-0.0994,-0.7374,0.3131,0.1724,1004.4218,273.4069,-138.3668,85.1465,49.26679081,-122.90578548,0.00000000,
2.804045,0.6439,0.7424,-0.0987,-0.8810,-0.3133,-0.0994,-0.7374,0.3131,0.1724,1004.4218,273.4069,-138.3668,85.1465,49.26679081,-122.90578548,0.00000000,
2.805504,0.6831,0.7061,-0.0610,-0.8810,-0.3133,-0.0994,-0.7374,0.3131,0.1724,1004.4218,273.4069,-138.3668,85.1465,49.26679081,-122.90578548,0.00000000,
2.806239,0.7086,0.6810,-0.0127,-0.8810,-0.3133,-0.0994,-0.7374,0.3131,0.1724,1004.4218,273.4069,-138.3668,85.1465,49.26679081,-122.90578548,0.00000000,
2.806847,0.7086,0.6810,-0.0127,-0.8810,-0.3133,-0.0994,-0.7374,0.3131,0.1724,1004.4218,273.0842,-138.8013,89.1554,49.26679081,-122.90578548,0.00000000,
2.837682,0.7086,0.6810,-0.0127,-0.8810,-0.3133,-0.0994,-0.7374,0.3131,0.1724,1004.4145,273.0842,-138.8013,89.1554,49.26679081,-122.90578548,0.00000000,
2.854883,0.7086,0.6810,-0.0127,-0.8810,-0.3133,-0.0994,-0.6707,0.0838,0.1332,1004.4145,273.0842,-138.8013,89.1554,49.26679081,-122.90578548,0.00000000,
2.864850,0.7086,0.6810,-0.0127,-0.8810,-0.3133,-0.0994,-0.6707,0.0838,0.1332,1004.4145,276.3595,-41.3128,89.3125,49.26679081,-122.90578548,0.00000000,
2.866004,0.7086,0.6810,-0.0127,-0.8662,0.3376,-0.6335,-0.6707,0.0838,0.1332,1004.4145,276.3595,-41.3128,89.3125,49.26679081,-122.90578548,0.00000000,
2.866764,0.7419,0.6848,0.0005,-0.8662,0.3376,-0.6335,-0.6707,0.0838,0.1332,1004.4145,276.3595,-41.3128,89.3125,49.26679081,-122.90578548,0.00000000,
2.867360,0.7178,0.7404,-0.0302,-0.8662,0.3376,-0.6335,-0.6707,0.0838,0.1332,1004.4145,276.3595,-41.3128,89.3125,49.26679081,-122.90578548,0.00000000,
2.868168,0.6896,0.8045,-0.0502,-0.8662,0.3376,-0.6335,-0.6707,0.0838,0.1332,1004.4145,276.3595,-41.3128,89.3125,49.26679081,-122.90578548,0.00000000,
2.877746,0.6896,0.8045,-0.0502,-0.8662,0.3376,-0.6335,-0.6707,0.0838,0.1332,1004.4111,276.3595,-41.3128,89.3125,49.26679081,-122.90578548,0.00000000,
2.918224,0.6896,0.8045,-0.0502,-0.8662,0.3376,-0.6335,-0.6707,0.0838,0.1332,1004.4077,276.3595,-41.3128,89.3125,49.26679081,-122.90578548,0.00000000,
2.920751,0.6896,0.8045,-0.0502,-0.8662,0.3376,-0.6335,0.1589,0.1345,0.1177,1004.4077,276.3595,-41.3128,89.3125,49.26679081,-122.90578548,0.00000000,
2.930473,0.6896,0.8045,-0.0502,-0.8662,0.3376,-0.6335,0.1589,0.1345,0.1177,1004.4077,277.4077,-138.3216,89.8857,49.26679081,-122.90578548,0.00000000,
2.932650,0.6896,0.8045,-0.0502,-0.5304,0.8897,-0.3110,0.1589,0.1345,0.1177,1004.4077,277.4077,-138.3216,89.8857,49.26679081,-122.90578548,0.00000000,
2.941571,0.6925,0.8494,-0.0447,-0.5304,0.8897,-0.3110,0.1589,0.1345,0.1177,1004.4077,277.4077,-138.3216,89.8857,49.26679081,-122.90578548,0.00000000,
2.943128,0.6835,0.8289,-0.0115,-0.5304,0.8897,-0.3110,0.1589,0.1345,0.1177,1004.4077,277.4077,-138.3216,89.8857,49.26679081,-122.90578548,0.00000000,
2.944513,0.6791,0.8233,0.0115,-0.5304,0.8897,-0.3110,0.1589,0.1345,0.1177,1004.4077,277.4077,-138.3216,89.8857,49.26679081,-122.90578548,0.00000000,
2.946150,0.6823,0.8394,-0.0120,-0.5304,0.8897,-0.3110,0.1589,0.1345,0.1177,1004.4077,277.4077,-138.3216,89.8857,49.26679081,-122.90578548,0.00000000,
2.959920,0.6823,0.8394,-0.0120,-0.5304,0.8897,-0.3110,0.1589,0.1345,0.1177,1004.3998,277.4077,-138.3216,89.8857,49.26679081,-122.90578548,0.00000000,
2.965232,0.6521,0.8042,0.0066,-0.5304,0.8897,-0.3110,0.1589,0.1345,0.1177,1004.3998,277.4077,-138.3216,89.8857,49.26679081,-122.90578548,0.00000000,
2.969391,0.6773,0.7860,0.0068,-0.5304,0.8897,-0.3110,0.1589,0.1345,0.1177,1004.3998,277.4077,-138.3216,89.8857,49.26679081,-122.90578548,0.00000000,
2.987533,0.6773,0.7860,0.0068,-0.5304,0.8897,-0.3110,0.8556,0.2986,0.0505,1004.3998,277.4077,-138.3216,89.8857,49.26679081,-122.90578548,0.00000000,
2.997041,0.6773,0.7860,0.0068,-0.7442,1.3443,0.1366,0.8556,0.2986,0.0505,1004.3998,277.4077,-138.3216,89.8857,49.26679081,-122.90578548,0.00000000,
2.998784,0.6773,0.7860,0.0068,-0.7442,1.3443,0.1366,0.8556,0.2986,0.0505,1004.4020,277.4077,-138.3216,89.8857,49.26679081,-122.90578548,0.00000000,
3.007109,0.6628,0.7249,0.0424,-0.7442,1.3443,0.1366,0.8556,0.2986,0.0505,1004.4020,277.4077,-138.3216,89.8857,49.26679081,-122.90578548,0.00000000,
3.008465,0.6530,0.6371,0.0889,-0.7442,1.3443,0.1366,0.8556,0.2986,0.0505,1004.4020,277.4077,-138.3216,89.8857,49.26679081,-122.90578548,0.00000000,
3.038298,0.6530,0.6371,0.0889,-0.7442,1.3443,0.1366,0.8556,0.2986,0.0505,1004.4133,277.4077,-138.3216,89.8857,49.26679081,-122.90578548,0.00000000,
3.043700,0.6530,0.6371,0.0889,-0.7442,1.3443,0.1366,0.8556,0.2986,0.0505,1004.4133,278.1792,-137.5068,88.4607,49.26679081,-122.90578548,0.00000000,
3.053137,0.6530,0.6371,0.0889,-0.7442,1.3443,0.1366,0.4355,0.6618,0.1881,1004.4133,278.1792,-137.5068,88.4607,49.26679081,-122.90578548,0.00000000,
3.063084,0.6530,0.6371,0.0889,-0.9430,0.5257,0.3250,0.4355,0.6618,0.1881,1004.4133,278.1792,-137.5068,88.4607,49.26679081,-122.90578548,0.00000000,
3.073020,0.6681,0.7051,0.0199,-0.9430,0.5257,0.3250,0.4355,0.6618,0.1881,1004.4133,278.1792,-137.5068,88.4607,49.26679081,-122.90578548,0.00000000,
3.074810,0.7423,0.8521,-0.0380,-0.9430,0.5257,0.3250,0.4355,0.6618,0.1881,1004.4133,278.1792,-137.5068,88.4607,49.26679081,-122.90578548,0.00000000,
3.076164,0.7180,0.7410,-0.0498,-0.9430,0.5257,0.3250,0.4355,0.6618,0.1881,1004.4133,278.1792,-137.5068,88.4607,49.26679081,-122.90578548,0.00000000,
3.079099,0.7180,0.7410,-0.0498,-0.9430,0.5257,0.3250,0.4355,0.6618,0.1881,1004.4228,278.1792,-137.5068,88.4607,49.26679081,-122.90578548,0.00000000,
3.101157,0.7180,0.7410,-0.0498,-0.9430,0.5257,0.3250,0.4355,0.6618,0.1881,1004.4228,276.1219,-42.1924,89.7436,49.26679081,-122.90578548,0.00000000,
3.118705,0.7180,0.7410,-0.0498,-0.9430,0.5257,0.3250,0.4355,0.6618,0.1881,1004.4296,276.1219,-42.1924,89.7436,49.26679081,-122.90578548,0.00000000,
3.120732,0.7180,0.7410,-0.0498,-0.9430,0.5257,0.3250,0.3380,1.4546,0.8825,1004.4296,276.1219,-42.1924,89.7436,49.26679081,-122.90578548,0.00000000,
3.124478,0.6647,0.7945,-0.0682,-0.9430,0.5257,0.3250,0.3380,1.4546,0.8825,1004.4296,276.1219,-42.1924,89.7436,49.26679081,-122.90578548,0.00000000,
3.125940,0.7169,0.8059,-0.1202,-0.9430,0.5257,0.3250,0.3380,1.4546,0.8825,1004.4296,276.1219,-42.1924,89.7436,49.26679081,-122.90578548,0.00000000,
3.126646,0.7559,0.7233,-0.0304,-0.9430,0.5257,0.3250,0.3380,1.4546,0.8825,1004.4296,276.1219,-42.1924,89.7436,49.26679081,-122.90578548,0.00000000,
3.128658,0.7559,0.7233,-0.0304,-0.8132,1.0283,-0.7471,0.3380,1.4546,0.8825,1004.4296,276.1219,-42.1924,89.7436,49.26679081,-122.90578548,0.00000000,
3.140778,0.7627,0.6030,0.0682,-0.8132,1.0283,-0.7471,0.3380,1.4546,0.8825,1004.4296,276.1219,-42.1924,89.7436,49.26679081,-122.90578548,0.00000000,
3.157866,0.7627,0.6030,0.0682,-0.8132,1.0283,-0.7471,0.3380,1.4546,0.8825,1004.4294,276.1219,-42.1924,89.7436,49.26679081,-122.90578548,0.00000000,
3.166260,0.7627,0.6030,0.0682,-0.8132,1.0283,-0.7471,0.3380,1.4546,0.8825,1004.4294,273.1259,-39.6059,85.6895,49.26679081,-122.90578548,0.00000000,
3.185594,0.7627,0.6030,0.0682,-0.8132,1.0283,-0.7471,0.0243,1.0603,0.7982,1004.4294,273.1259,-39.6059,85.6895,49.26679081,-122.90578548,0.00000000,
3.195663,0.7627,0.6030,0.0682,-0.6949,1.0450,-1.2362,0.0243,1.0603,0.7982,1004.4294,273.1259,-39.6059,85.6895,49.26679081,-122.90578548,0.00000000,
3.198181,0.7627,0.6030,0.0682,-0.6949,1.0450,-1.2362,0.0243,1.0603,0.7982,1004.4406,273.1259,-39.6059,85.6895,49.26679081,-122.90578548,0.00000000,
3.204568,0.7614,0.5500,0.1281,-0.6949,1.0450,-1.2362,0.0243,1.0603,0.7982,1004.4406,273.1259,-39.6059,85.6895,49.26679081,-122.90578548,0.00000000,
3.206166,0.8412,0.5061,0.1228,-0.6949,1.0450,-1.2362,0.0243,1.0603,0.7982,1004.4406,273.1259,-39.6059,85.6895,49.26679081,-122.90578548,0.00000000,
3.207599,0.9204,0.4633,0.2348,-0.6949,1.0450,-1.2362,0.0243,1.0603,0.7982,1004.4406,273.1259,-39.6059,85.6895,49.26679081,-122.90578548,0.00000000,
3.223306,0.9204,0.4633,0.2348,-0.6949,1.0450,-1.2362,0.0243,1.0603,0.7982,1004.4406,273.5714,-38.3142,84.2950,49.26679081,-122.90578548,0.00000000,
3.238955,0.9204,0.4633,0.2348,-0.6949,1.0450,-1.2362,0.0243,1.0603,0.7982,1004.4428,273.5714,-38.3142,84.2950,49.26679081,-122.90578548,0.00000000,
3.251864,0.9204,0.4633,0.2348,-0.6949,1.0450,-1.2362,-0.1823,-1.1655,-0.3713,1004.4428,273.5714,-38.3142,84.2950,49.26679081,-122.90578548,0.00000000,
3.261409,0.9204,0.4633,0.2348,0.4204,-1.3680,1.1596,-0.1823,-1.1655,-0.3713,1004.4428,273.5714,-38.3142,84.2950,49.26679081,-122.90578548,0.00000000,
3.272789,0.6730,0.5587,0.1141,0.4204,-1.3680,1.1596,-0.1823,-1.1655,-0.3713,1004.4428,273.5714,-38.3142,84.2950,49.26679081,-122.90578548,0.00000000,
3.274554,0.7511,0.6998,0.0516,0.4204,-1.3680,1.1596,-0.1823,-1.1655,-0.3713,1004.4428,273.5714,-38.3142,84.2950,49.26679081,-122.90578548,0.00000000,
3.275952,0.8988,0.6303,0.0768,0.4204,-1.3680,1.1596,-0.1823,-1.1655,-0.3713,1004.4428,273.5714,-38.3142,84.2950,49.26679081,-122.90578548,0.00000000,
3.277719,0.8927,0.6100,0.0131,0.4204,-1.3680,1.1596,-0.1823,-1.1655,-0.3713,1004.4428,273.5714,-38.3142,84.2950,49.26679081,-122.90578548,0.00000000,
3.279112,0.8927,0.6100,0.0131,0.4204,-1.3680,1.1596,-0.1823,-1.1655,-0.3713,1004.4443,273.5714,-38.3142,84.2950,49.26679081,-122.90578548,0.00000000,
3.280297,0.8927,0.6100,0.0131,0.4204,-1.3680,1.1596,-0.1823,-1.1655,-0.3713,1004.4443,273.6383,-38.7299,87.2388,49.26679081,-122.90578548,0.00000000,
3.289965,0.7448,0.6965,-0.0229,0.4204,-1.3680,1.1596,-0.1823,-1.1655,-0.3713,1004.4443,273.6383,-38.7299,87.2388,49.26679081,-122.90578548,0.00000000,
3.318073,0.7448,0.6965,-0.0229,0.4204,-1.3680,1.1596,-0.3341,-1.2439,-0.5102,1004.4443,273.6383,-38.7299,87.2388,49.26679081,-122.90578548,0.00000000,
3.319875,0.7448,0.6965,-0.0229,0.4204,-1.3680,1.1596,-0.3341,-1.2439,-0.5102,1004.4511,273.6383,-38.7299,87.2388,49.26679081,-122.90578548,0.00000000,
3.327631,0.7448,0.6965,-0.0229,0.2705,-0.1579,0.6077,-0.3341,-1.2439,-0.5102,1004.4511,273.6383,-38.7299,87.2388,49.26679081,-122.90578548,0.00000000,
3.346940,0.7448,0.6965,-0.0229,0.2705,-0.1579,0.6077,-0.3341,-1.2439,-0.5102,1004.4511,277.3970,-40.6446,89.9940,49.26679081,-122.90578548,0.00000000,
3.348864,0.8064,0.7348,-0.0097,0.2705,-0.1579,0.6077,-0.3341,-1.2439,-0.5102,1004.4511,277.3970,-40.6446,89.9940,49.26679081,-122.90578548,0.00000000,
3.350260,0.8543,0.7590,0.0042,0.2705,-0.1579,0.6077,-0.3341,-1.2439,-0.5102,1004.4511,277.3970,-40.6446,89.9940,49.26679081,-122.90578548,0.00000000,
3.351742,0.7511,0.7414,0.0900,0.2705,-0.1579,0.6077,-0.3341,-1.2439,-0.5102,1004.4511,277.3970,-40.6446,89.9940,49.26679081,-122.90578548,0.00000000,
3.358670,0.7511,0.7414,0.0900,0.2705,-0.1579,0.6077,-0.3341,-1.2439,-0.5102,1004.4518,277.3970,-40.6446,89.9940,49.26679081,-122.90578548,0.00000000,
3.384843,0.7511,0.7414,0.0900,0.2705,-0.1579,0.6077,-0.2589,-1.2362,-1.0582,1004.4518,277.3970,-40.6446,89.9940,49.26679081,-122.90578548,0.00000000,
3.394002,0.7511,0.7414,0.0900,0.7670,0.0581,0.4464,-0.2589,-1.2362,-1.0582,1004.4518,277.3970,-40.6446,89.9940,49.26679081,-122.90578548,0.00000000,
3.398645,0.7511,0.7414,0.0900,0.7670,0.0581,0.4464,-0.2589,-1.2362,-1.0582,1004.4584,277.3970,-40.6446,89.9940,49.26679081,-122.90578548,0.00000000,
3.402243,0.7511,0.7414,0.0900,0.7670,0.0581,0.4464,-0.2589,-1.2362,-1.0582,1004.4584,285.6308,-135.3706,86.1954,49.26679081,-122.90578548,0.00000000,
3.412205,0.6755,0.7549,0.1028,0.7670,0.0581,0.4464,-0.2589,-1.2362,-1.0582,1004.4584,285.6308,-135.3706,86.1954,49.26679081,-122.90578548,0.00000000,
3.414243,0.6873,0.7611,0.0985,0.7670,0.0581,0.4464,-0.2589,-1.2362,-1.0582,1004.4584,285.6308,-135.3706,86.1954,49.26679081,-122.90578548,0.00000000,
3.415637,0.6847,0.6880,0.0670,0.7670,0.0581,0.4464,-0.2589,-1.2362,-1.0582,1004.4584,285.6308,-135.3706,86.1954,49.26679081,-122.90578548,0.00000000,
3.439683,0.6847,0.6880,0.0670,0.7670,0.0581,0.4464,-0.2589,-1.2362,-1.0582,1004.4953,285.6308,-135.3706,86.1954,49.26679081,-122.90578548,0.00000000,
3.444974,0.8390,0.6470,-0.0820,0.7670,0.0581,0.4464,-0.2589,-1.2362,-1.0582,1004.4953,285.6308,-135.3706,86.1954,49.26679081,-122.90578548,0.00000000,
3.446973,0.8534,0.5967,-0.0756,0.7670,0.0581,0.4464,-0.2589,-1.2362,-1.0582,1004.4953,285.6308,-135.3706,86.1954,49.26679081,-122.90578548,0.00000000,
3.449460,0.8534,0.5967,-0.0756,0.7670,0.0581,0.4464,0.0885,-1.4537,-1.2408,1004.4953,285.6308,-135.3706,86.1954,49.26679081,-122.90578548,0.00000000,
3.459886,0.8534,0.5967,-0.0756,0.2820,-0.2978,1.8172,0.0885,-1.4537,-1.2408,1004.4953,285.6308,-135.3706,86.1954,49.26679081,-122.90578548,0.00000000,
3.462032,0.8534,0.5967,-0.0756,0.2820,-0.2978,1.8172,0.0885,-1.4537,-1.2408,1004.4953,294.0055,-131.0344,81.9269,49.26679081,-122.90578548,0.00000000,
3.479683,0.8534,0.5967,-0.0756,0.2820,-0.2978,1.8172,0.0885,-1.4537,-1.2408,1004.5676,294.0055,-131.0344,81.9269,49.26679081,-122.90578548,0.00000000,
3.481904,0.7127,0.7062,-0.2039,0.2820,-0.2978,1.8172,0.0885,-1.4537,-1.2408,1004.5676,294.0055,-131.0344,81.9269,49.26679081,-122.90578548,0.00000000,
3.483266,0.7130,0.7329,-0.4577,0.2820,-0.2978,1.8172,0.0885,-1.4537,-1.2408,1004.5676,294.0055,-131.0344,81.9269,49.26679081,-122.90578548,0.00000000,
3.516984,0.7130,0.7329,-0.4577,0.2820,-0.2978,1.8172,-0.0727,0.0858,-1.2485,1004.5676,294.0055,-131.0344,81.9269,49.26679081,-122.90578548,0.00000000,
3.519162,0.7130,0.7329,-0.4577,0.2820,-0.2978,1.8172,-0.0727,0.0858,-1.2485,1004.6147,294.0055,-131.0344,81.9269,49.26679081,-122.90578548,0.00000000,
3.526297,0.7130,0.7329,-0.4577,1.6218,-1.4251,-0.6137,-0.0727,0.0858,-1.2485,1004.6147,294.0055,-131.0344,81.9269,49.26679081,-122.90578548,0.00000000,
3.528257,0.7130,0.7329,-0.4577,1.6218,-1.4251,-0.6137,-0.0727,0.0858,-1.2485,1004.6147,291.8665,-127.8166,37.6010,49.26679081,-122.90578548,0.00000000,
3.544896,0.7067,0.6485,-0.2653,1.6218,-1.4251,-0.6137,-0.0727,0.0858,-1.2485,1004.6147,291.8665,-127.8166,37.6010,49.26679081,-122.90578548,0.00000000,
3.550009,0.6188,0.7924,-0.3910,1.6218,-1.4251,-0.6137,-0.0727,0.0858,-1.2485,1004.6147,291.8665,-127.8166,37.6010,49.26679081,-122.90578548,0.00000000,
3.554881,0.5997,0.8037,-0.2060,1.6218,-1.4251,-0.6137,-0.0727,0.0858,-1.2485,1004.6147,291.8665,-127.8166,37.6010,49.26679081,-122.90578548,0.00000000,
3.558198,0.5997,0.8037,-0.2060,1.6218,-1.4251,-0.6137,-0.0727,0.0858,-1.2485,1004.6296,291.8665,-127.8166,37.6010,49.26679081,-122.90578548,0.00000000,
3.581791,0.5997,0.8037,-0.2060,1.6218,-1.4251,-0.6137,-0.5032,0.7382,-1.2216,1004.6296,291.8665,-127.8166,37.6010,49.26679081,-122.90578548,0.00000000,
3.596993,0.5997,0.8037,-0.2060,1.6218,-1.4251,-0.6137,-0.5032,0.7382,-1.2216,1004.6296,293.5108,-124.2106,34.0526,49.26679081,-122.90578548,0.00000000,
3.598066,0.5997,0.8037,-0.2060,0.9256,-0.9836,-2.6005,-0.5032,0.7382,-1.2216,1004.6296,293.5108,-124.2106,34.0526,49.26679081,-122.90578548,0.00000000,
3.598608,0.5997,0.8037,-0.2060,0.9256,-0.9836,-2.6005,-0.5032,0.7382,-1.2216,1004.6232,293.5108,-124.2106,34.0526,49.26679081,-122.90578548,0.00000000,
3.602489,0.7072,0.7456,0.0231,0.9256,-0.9836,-2.6005,-0.5032,0.7382,-1.2216,1004.6232,293.5108,-124.2106,34.0526,49.26679081,-122.90578548,0.00000000,
3.603078,0.6632,0.7385,0.0513,0.9256,-0.9836,-2.6005,-0.5032,0.7382,-1.2216,1004.6232,293.5108,-124.2106,34.0526,49.26679081,-122.90578548,0.00000000,
3.603520,0.5248,0.8516,0.0632,0.9256,-0.9836,-2.6005,-0.5032,0.7382,-1.2216,1004.6232,293.5108,-124.2106,34.0526,49.26679081,-122.90578548,0.00000000,
3.609705,0.4602,0.9211,-0.0554,0.9256,-0.9836,-2.6005,-0.5032,0.7382,-1.2216,1004.6232,293.5108,-124.2106,34.0526,49.26679081,-122.90578548,0.00000000,
3.637893,0.4602,0.9211,-0.0554,0.9256,-0.9836,-2.6005,-0.5032,0.7382,-1.2216,1004.6057,293.5108,-124.2106,34.0526,49.26679948,-122.90577117,0.00000000,
3.647222,0.4602,0.9211,-0.0554,0.9256,-0.9836,-2.6005,-0.4774,-0.3509,-0.9110,1004.6057,293.5108,-124.2106,34.0526,49.26679948,-122.90577117,0.00000000,
3.656642,0.4602,0.9211,-0.0554,0.8890,-0.7410,0.6863,-0.4774,-0.3509,-0.9110,1004.6057,293.5108,-124.2106,34.0526,49.26679948,-122.90577117,0.00000000,
3.669371,0.4385,0.9699,-0.0878,0.8890,-0.7410,0.6863,-0.4774,-0.3509,-0.9110,1004.6057,293.5108,-124.2106,34.0526,49.26679948,-122.90577117,0.00000000,
3.671323,0.4184,0.9878,-0.0854,0.8890,-0.7410,0.6863,-0.4774,-0.3509,-0.9110,1004.6057,293.5108,-124.2106,34.0526,49.26679948,-122.90577117,0.00000000,
3.672659,0.3642,0.8761,0.1047,0.8890,-0.7410,0.6863,-0.4774,-0.3509,-0.9110,1004.6057,293.5108,-124.2106,34.0526,49.26679948,-122.90577117,0.00000000,
3.678160,0.3642,0.8761,0.1047,0.8890,-0.7410,0.6863,-0.4774,-0.3509,-0.9110,1004.5786,293.5108,-124.2106,34.0526,49.26679948,-122.90577117,0.00000000,
3.705137,0.3642,0.8761,0.1047,0.8890,-0.7410,0.6863,-0.4774,-0.3509,-0.9110,1004.5786,296.2391,-121.5023,31.4319,49.26679948,-122.90577117,0.00000000,
3.713536,0.3642,0.8761,0.1047,0.8890,-0.7410,0.6863,-0.1716,-0.6655,-0.8076,1004.5786,296.2391,-121.5023,31.4319,49.26679948,-122.90577117,0.00000000,
3.717698,0.3642,0.8761,0.1047,0.8890,-0.7410,0.6863,-0.1716,-0.6655,-0.8076,1004.5544,296.2391,-121.5023,31.4319,49.26679948,-122.90577117,0.00000000,
3.722283,0.3642,0.8761,0.1047,-0.5265,0.4524,0.1046,-0.1716,-0.6655,-0.8076,1004.5544,296.2391,-121.5023,31.4319,49.26679948,-122.90577117,0.00000000,
3.744517,0.3135,0.9785,0.1569,-0.5265,0.4524,0.1046,-0.1716,-0.6655,-0.8076,1004.5544,296.2391,-121.5023,31.4319,49.26679948,-122.90577117,0.00000000,
3.746080,0.2943,1.0127,0.1078,-0.5265,0.4524,0.1046,-0.1716,-0.6655,-0.8076,1004.5544,296.2391,-121.5023,31.4319,49.26679948,-122.90577117,0.00000000,
3.746758,0.3251,0.9568,-0.0128,-0.5265,0.4524,0.1046,-0.1716,-0.6655,-0.8076,1004.5544,296.2391,-121.5023,31.4319,49.26679948,-122.90577117,0.00000000,
3.747398,0.3770,0.9139,-0.1417,-0.5265,0.4524,0.1046,-0.1716,-0.6655,-0.8076,1004.5544,296.2391,-121.5023,31.4319,49.26679948,-122.90577117,0.00000000,
3.757732,0.3770,0.9139,-0.1417,-0.5265,0.4524,0.1046,-0.1716,-0.6655,-0.8076,1004.5595,296.2391,-121.5023,31.4319,49.26679948,-122.90577117,0.00000000,
3.759932,0.3770,0.9139,-0.1417,-0.5265,0.4524,0.1046,-0.1716,-0.6655,-0.8076,1004.5595,305.4075,-117.9832,27.8075,49.26679948,-122.90577117,0.00000000,
3.763392,0.3435,0.9466,-0.2019,-0.5265,0.4524,0.1046,-0.1716,-0.6655,-0.8076,1004.5595,305.4075,-117.9832,27.8075,49.26679948,-122.90577117,0.00000000,
3.779637,0.3435,0.9466,-0.2019,-0.5265,0.4524,0.1046,-0.1636,-1.2126,-0.7937,1004.5595,305.4075,-117.9832,27.8075,49.26679948,-122.90577117,0.00000000,
3.788771,0.3435,0.9466,-0.2019,-0.8846,0.4278,1.3615,-0.1636,-1.2126,-0.7937,1004.5595,305.4075,-117.9832,27.8075,49.26679948,-122.90577117,0.00000000,
3.797936,0.3435,0.9466,-0.2019,-0.8846,0.4278,1.3615,-0.1636,-1.2126,-0.7937,1004.5519,305.4075,-117.9832,27.8075,49.26679948,-122.90577117,0.00000000,
3.807472,0.3320,0.8706,-0.1530,-0.8846,0.4278,1.3615,-0.1636,-1.2126,-0.7937,1004.5519,305.4075,-117.9832,27.8075,49.26679948,-122.90577117,0.00000000,
3.808245,0.2911,0.8702,-0.0708,-0.8846,0.4278,1.3615,-0.1636,-1.2126,-0.7937,1004.5519,305.4075,-117.9832,27.8075,49.26679948,-122.90577117,0.00000000,
3.826399,0.2911,0.8702,-0.0708,-0.8846,0.4278,1.3615,-0.1636,-1.2126,-0.7937,1004.5519,317.4484,-114.0116,23.7712,49.26679948,-122.90577117,0.00000000,
3.837864,0.2911,0.8702,-0.0708,-0.8846,0.4278,1.3615,-0.1636,-1.2126,-0.7937,1004.5329,317.4484,-114.0116,23.7712,49.26679948,-122.90577117,0.00000000,
3.845191,0.2911,0.8702,-0.0708,-0.8846,0.4278,1.3615,-0.4348,-1.0658,-0.8361,1004.5329,317.4484,-114.0116,23.7712,49.26679948,-122.90577117,0.00000000,
3.855102,0.2911,0.8702,-0.0708,-0.1247,-0.4317,-0.8062,-0.4348,-1.0658,-0.8361,1004.5329,317.4484,-114.0116,23.7712,49.26679948,-122.90577117,0.00000000,
3.874153,0.3153,0.8068,0.0009,-0.1247,-0.4317,-0.8062,-0.4348,-1.0658,-0.8361,1004.5329,317.4484,-114.0116,23.7712,49.26679948,-122.90577117,0.00000000,
3.874907,0.3260,0.7857,0.0160,-0.1247,-0.4317,-0.8062,-0.4348,-1.0658,-0.8361,1004.5329,317.4484,-114.0116,23.7712,49.26679948,-122.90577117,0.00000000,
3.875283,0.2575,0.8914,-0.1779,-0.1247,-0.4317,-0.8062,-0.4348,-1.0658,-0.8361,1004.5329,317.4484,-114.0116,23.7712,49.26679948,-122.90577117,0.00000000,
3.875676,0.4161,0.9025,-0.1533,-0.1247,-0.4317,-0.8062,-0.4348,-1.0658,-0.8361,1004.5329,317.4484,-114.0116,23.7712,49.26679948,-122.90577117,0.00000000,
3.877772,0.4161,0.9025,-0.1533,-0.1247,-0.4317,-0.8062,-0.4348,-1.0658,-0.8361,1004.5099,317.4484,-114.0116,23.7712,49.26679948,-122.90577117,0.00000000,
3.882332,0.4161,0.9025,-0.1533,-0.1247,-0.4317,-0.8062,-0.4348,-1.0658,-0.8361,1004.5099,326.5842,-110.8031,20.4349,49.26679948,-122.90577117,0.00000000,
3.911299,0.4161,0.9025,-0.1533,-0.1247,-0.4317,-0.8062,-0.5158,-0.2756,-0.9013,1004.5099,326.5842,-110.8031,20.4349,49.26679948,-122.90577117,0.00000000,
3.917771,0.4161,0.9025,-0.1533,-0.1247,-0.4317,-0.8062,-0.5158,-0.2756,-0.9013,1004.4985,326.5842,-110.8031,20.4349,49.26679948,-122.90577117,0.00000000,
3.921014,0.4161,0.9025,-0.1533,0.0719,-1.1359,-0.1946,-0.5158,-0.2756,-0.9013,1004.4985,326.5842,-110.8031,20.4349,49.26679948,-122.90577117,0.00000000,
3.925666,0.4212,0.8453,-0.0384,0.0719,-1.1359,-0.1946,-0.5158,-0.2756,-0.9013,1004.4985,326.5842,-110.8031,20.4349,49.26679948,-122.90577117,0.00000000,
3.926412,0.3382,0.7882,0.0255,0.0719,-1.1359,-0.1946,-0.5158,-0.2756,-0.9013,1004.4985,326.5842,-110.8031,20.4349,49.26679948,-122.90577117,0.00000000,
3.930473,0.2927,0.7706,0.0175,0.0719,-1.1359,-0.1946,-0.5158,-0.2756,-0.9013,1004.4985,326.5842,-110.8031,20.4349,49.26679948,-122.90577117,0.00000000,
3.939389,0.2927,0.7706,0.0175,0.0719,-1.1359,-0.1946,-0.5158,-0.2756,-0.9013,1004.4985,331.6575,-107.1817,17.0072,49.26679948,-122.90577117,0.00000000,
3.958330,0.2927,0.7706,0.0175,0.0719,-1.1359,-0.1946,-0.5158,-0.2756,-0.9013,1004.4838,331.6575,-107.1817,17.0072,49.26679948,-122.90577117,0.00000000,
3.977271,0.2927,0.7706,0.0175,0.0719,-1.1359,-0.1946,-0.5428,0.6131,-1.1720,1004.4838,331.6575,-107.1817,17.0072,49.26679948,-122.90577117,0.00000000,
3.987095,0.2927,0.7706,0.0175,1.3585,-1.3258,-0.2327,-0.5428,0.6131,-1.1720,1004.4838,331.6575,-107.1817,17.0072,49.26679948,-122.90577117,0.00000000,
3.997757,0.2927,0.7706,0.0175,1.3585,-1.3258,-0.2327,-0.5428,0.6131,-1.1720,1004.4511,331.6575,-107.1817,17.0072,49.26679948,-122.90577117,0.00000000,
4.005932,0.2927,0.7706,0.0175,1.3585,-1.3258,-0.2327,-0.5428,0.6131,-1.1720,1004.4511,331.1398,-103.8185,13.8184,49.26679948,-122.90577117,0.00000000,
4.007684,0.1969,0.9136,-0.1544,1.3585,-1.3258,-0.2327,-0.5428,0.6131,-1.1720,1004.4511,331.1398,-103.8185,13.8184,49.26679948,-122.90577117,0.00000000,
4.009036,0.2045,0.8602,0.0255,1.3585,-1.3258,-0.2327,-0.5428,0.6131,-1.1720,1004.4511,331.1398,-103.8185,13.8184,49.26679948,-122.90577117,0.00000000,
4.010414,0.0692,0.8658,0.0870,1.3585,-1.3258,-0.2327,-0.5428,0.6131,-1.1720,1004.4511,331.1398,-103.8185,13.8184,49.26679948,-122.90577117,0.00000000,
4.011714,0.0251,0.8867,0.0751,1.3585,-1.3258,-0.2327,-0.5428,0.6131,-1.1720,1004.4511,331.1398,-103.8185,13.8184,49.26679948,-122.90577117,0.00000000,
4.038797,0.0251,0.8867,0.0751,1.3585,-1.3258,-0.2327,-0.5428,0.6131,-1.1720,1004.4262,331.1398,-103.8185,13.8184,49.26679948,-122.90577117,0.00000000,
4.043021,0.0251,0.8867,0.0751,1.3585,-1.3258,-0.2327,-0.1067,1.6616,-0.8041,1004.4262,331.1398,-103.8185,13.8184,49.26679948,-122.90577117,0.00000000,
4.052908,0.0251,0.8867,0.0751,-0.2110,-0.8002,-0.2889,-0.1067,1.6616,-0.8041,1004.4262,331.1398,-103.8185,13.8184,49.26679948,-122.90577117,0.00000000,
4.062407,0.0251,0.8867,0.0751,-0.2110,-0.8002,-0.2889,-0.1067,1.6616,-0.8041,1004.4262,331.0494,-78.9681,10.9524,49.26679948,-122.90577117,0.00000000,
4.072175,-0.0093,0.9557,0.0999,-0.2110,-0.8002,-0.2889,-0.1067,1.6616,-0.8041,1004.4262,331.0494,-78.9681,10.9524,49.26679948,-122.90577117,0.00000000,
4.074018,0.0225,1.0170,-0.0283,-0.2110,-0.8002,-0.2889,-0.1067,1.6616,-0.8041,1004.4262,331.0494,-78.9681,10.9524,49.26679948,-122.90577117,0.00000000,
4.075342,0.0358,0.8545,0.1353,-0.2110,-0.8002,-0.2889,-0.1067,1.6616,-0.8041,1004.4262,331.0494,-78.9681,10.9524,49.26679948,-122.90577117,0.00000000,
4.077985,0.0358,0.8545,0.1353,-0.2110,-0.8002,-0.2889,-0.1067,1.6616,-0.8041,1004.4391,331.0494,-78.9681,10.9524,49.26679948,-122.90577117,0.00000000,
4.084207,-0.0530,1.0354,0.0590,-0.2110,-0.8002,-0.2889,-0.1067,1.6616,-0.8041,1004.4391,331.0494,-78.9681,10.9524,49.26679948,-122.90577117,0.00000000,
4.110193,-0.0530,1.0354,0.0590,-0.2110,-0.8002,-0.2889,0.1127,1.1190,-0.3082,1004.4391,331.0494,-78.9681,10.9524,49.26679948,-122.90577117,0.00000000,
4.119003,-0.0530,1.0354,0.0590,-0.2110,-0.8002,-0.2889,0.1127,1.1190,-0.3082,1004.5954,331.0494,-78.9681,10.9524,49.26679948,-122.90577117,0.00000000,
4.120888,-0.0530,1.0354,0.0590,-1.3768,-0.0637,0.2569,0.1127,1.1190,-0.3082,1004.5954,331.0494,-78.9681,10.9524,49.26679948,-122.90577117,0.00000000,
4.122732,-0.0530,1.0354,0.0590,-1.3768,-0.0637,0.2569,0.1127,1.1190,-0.3082,1004.5954,333.4742,-80.9393,8.9026,49.26679948,-122.90577117,0.00000000,
4.139432,-0.0238,0.9884,0.0884,-1.3768,-0.0637,0.2569,0.1127,1.1190,-0.3082,1004.5954,333.4742,-80.9393,8.9026,49.26679948,-122.90577117,0.00000000,
4.141141,0.0155,0.9388,0.0708,-1.3768,-0.0637,0.2569,0.1127,1.1190,-0.3082,1004.5954,333.4742,-80.9393,8.9026,49.26679948,-122.90577117,0.00000000,
4.142661,-0.0006,0.8402,0.0296,-1.3768,-0.0637,0.2569,0.1127,1.1190,-0.3082,1004.5954,333.4742,-80.9393,8.9026,49.26679948,-122.90577117,0.00000000,
4.159272,-0.0006,0.8402,0.0296,-1.3768,-0.0637,0.2569,0.1127,1.1190,-0.3082,1004.6935,333.4742,-80.9393,8.9026,49.26679948,-122.90577117,0.00000000,
4.175510,-0.0006,0.8402,0.0296,-1.3768,-0.0637,0.2569,0.2035,0.8659,-0.0465,1004.6935,333.4742,-80.9393,8.9026,49.26679948,-122.90577117,0.00000000,
4.185533,-0.0006,0.8402,0.0296,-1.3768,-0.0637,0.2569,0.2035,0.8659,-0.0465,1004.6935,334.5888,-82.1111,7.6767,49.26679948,-122.90577117,0.00000000,
4.187562,-0.0006,0.8402,0.0296,-1.3502,0.0594,0.4897,0.2035,0.8659,-0.0465,1004.6935,334.5888,-82.1111,7.6767,49.26679948,-122.90577117,0.00000000,
4.198197,-0.0006,0.8402,0.0296,-1.3502,0.0594,0.4897,0.2035,0.8659,-0.0465,1004.6786,334.5888,-82.1111,7.6767,49.26679948,-122.90577117,0.00000000,
4.204349,0.0725,0.9782,0.0311,-1.3502,0.0594,0.4897,0.2035,0.8659,-0.0465,1004.6786,334.5888,-82.1111,7.6767,49.26679948,-122.90577117,0.00000000,
4.206155,0.0497,0.9057,-0.0154,-1.3502,0.0594,0.4897,0.2035,0.8659,-0.0465,1004.6786,334.5888,-82.1111,7.6767,49.26679948,-122.90577117,0.00000000,
4.207544,-0.0100,0.9165,0.0920,-1.3502,0.0594,0.4897,0.2035,0.8659,-0.0465,1004.6786,334.5888,-82.1111,7.6767,49.26679948,-122.90577117,0.00000000,
4.238741,-0.0100,0.9165,0.0920,-1.3502,0.0594,0.4897,0.2035,0.8659,-0.0465,1004.5239,334.5888,-82.1111,7.6767,49.26679948,-122.90577117,0.00000000,
4.241201,-0.0100,0.9165,0.0920,-1.3502,0.0594,0.4897,-0.1117,0.8797,0.1221,1004.5239,334.5888,-82.1111,7.6767,49.26679948,-122.90577117,0.00000000,
4.244307,0.0544,0.9225,-0.0414,-1.3502,0.0594,0.4897,-0.1117,0.8797,0.1221,1004.5239,334.5888,-82.1111,7.6767,49.26679948,-122.90577117,0.00000000,
4.246414,0.1467,1.0818,-0.2060,-1.3502,0.0594,0.4897,-0.1117,0.8797,0.1221,1004.5239,334.5888,-82.1111,7.6767,49.26679948,-122.90577117,0.00000000,
4.251459,0.1467,1.0818,-0.2060,-1.3502,0.0594,0.4897,-0.1117,0.8797,0.1221,1004.5239,334.6230,-82.0285,7.3280,49.26679948,-122.90577117,0.00000000,
4.253427,0.1467,1.0818,-0.2060,-0.9220,-0.4562,-0.1366,-0.1117,0.8797,0.1221,1004.5239,334.6230,-82.0285,7.3280,49.26679948,-122.90577117,0.00000000,
4.270344,0.1938,1.3073,-0.2668,-0.9220,-0.4562,-0.1366,-0.1117,0.8797,0.1221,1004.5239,334.6230,-82.0285,7.3280,49.26679948,-122.90577117,0.00000000,
4.271208,0.1231,1.2847,0.1211,-0.9220,-0.4562,-0.1366,-0.1117,0.8797,0.1221,1004.5239,334.6230,-82.0285,7.3280,49.26679948,-122.90577117,0.00000000,
4.278836,0.1231,1.2847,0.1211,-0.9220,-0.4562,-0.1366,-0.1117,0.8797,0.1221,1004.3893,334.6230,-82.0285,7.3280,49.26679948,-122.90577117,0.00000000,
4.307991,0.1231,1.2847,0.1211,-0.9220,-0.4562,-0.1366,-0.5238,0.4086,-0.0241,1004.3893,334.6230,-82.0285,7.3280,49.26679948,-122.90577117,0.00000000,
4.318071,0.1231,1.2847,0.1211,-0.0121,1.3138,-1.9867,-0.5238,0.4086,-0.0241,1004.3893,334.6230,-82.0285,7.3280,49.26679948,-122.90577117,0.00000000,
4.319941,0.1231,1.2847,0.1211,-0.0121,1.3138,-1.9867,-0.5238,0.4086,-0.0241,1004.2944,334.6230,-82.0285,7.3280,49.26679948,-122.90577117,0.00000000,
4.337241,0.0767,1.4060,0.2690,-0.0121,1.3138,-1.9867,-0.5238,0.4086,-0.0241,1004.2944,334.6230,-82.0285,7.3280,49.26679948,-122.90577117,0.00000000,
4.339170,0.0648,1.4555,0.1944,-0.0121,1.3138,-1.9867,-0.5238,0.4086,-0.0241,1004.2944,334.6230,-82.0285,7.3280,49.26679948,-122.90577117,0.00000000,
4.340434,0.0420,1.2394,0.0552,-0.0121,1.3138,-1.9867,-0.5238,0.4086,-0.0241,1004.2944,334.6230,-82.0285,7.3280,49.26679948,-122.90577117,0.00000000,
4.345807,0.0756,1.0649,-0.0071,-0.0121,1.3138,-1.9867,-0.5238,0.4086,-0.0241,1004.2944,334.6230,-82.0285,7.3280,49.26679948,-122.90577117,0.00000000,
4.358227,0.0756,1.0649,-0.0071,-0.0121,1.3138,-1.9867,-0.5238,0.4086,-0.0241,1004.3085,334.6230,-82.0285,7.3280,49.26679948,-122.90577117,0.00000000,
4.364389,0.0756,1.0649,-0.0071,-0.0121,1.3138,-1.9867,-0.5238,0.4086,-0.0241,1004.3085,334.8892,-82.1600,7.1625,49.26679948,-122.90577117,0.00000000,
4.366081,0.0428,0.9892,0.0926,-0.0121,1.3138,-1.9867,-0.5238,0.4086,-0.0241,1004.3085,334.8892,-82.1600,7.1625,49.26679948,-122.90577117,0.00000000,
4.373823,0.0428,0.9892,0.0926,-0.0121,1.3138,-1.9867,0.0597,0.2056,0.1393,1004.3085,334.8892,-82.1600,7.1625,49.26679948,-122.90577117,0.00000000,
4.383491,0.0428,0.9892,0.0926,-0.4888,3.5108,1.1601,0.0597,0.2056,0.1393,1004.3085,334.8892,-82.1600,7.1625,49.26679948,-122.90577117,0.00000000,
4.398030,0.0428,0.9892,0.0926,-0.4888,3.5108,1.1601,0.0597,0.2056,0.1393,1004.4628,334.8892,-82.1600,7.1625,49.26679948,-122.90577117,0.00000000,
4.404392,0.0530,0.9431,0.1757,-0.4888,3.5108,1.1601,0.0597,0.2056,0.1393,1004.4628,334.8892,-82.1600,7.1625,49.26679948,-122.90577117,0.00000000,
4.405870,0.1660,0.8668,0.0883,-0.4888,3.5108,1.1601,0.0597,0.2056,0.1393,1004.4628,334.8892,-82.1600,7.1625,49.26679948,-122.90577117,0.00000000,
4.420540,0.1660,0.8668,0.0883,-0.4888,3.5108,1.1601,0.0597,0.2056,0.1393,1004.4628,336.2974,-82.1620,6.8780,49.26679948,-122.90577117,0.00000000,
4.438018,0.1660,0.8668,0.0883,-0.4888,3.5108,1.1601,0.0597,0.2056,0.1393,1004.6218,336.2974,-82.1620,6.8780,49.26679948,-122.90577117,0.00000000,
4.439556,0.1660,0.8668,0.0883,-0.4888,3.5108,1.1601,0.0915,-0.0415,-0.2147,1004.6218,336.2974,-82.1620,6.8780,49.26679948,-122.90577117,0.00000000,
4.440629,0.1335,0.9942,0.1007,-0.4888,3.5108,1.1601,0.0915,-0.0415,-0.2147,1004.6218,336.2974,-82.1620,6.8780,49.26679948,-122.90577117,0.00000000,
4.441888,0.1568,0.9569,0.0959,-0.4888,3.5108,1.1601,0.0915,-0.0415,-0.2147,1004.6218,336.2974,-82.1620,6.8780,49.26679948,-122.90577117,0.00000000,
4.448630,0.1568,0.9569,0.0959,-0.3380,-0.1314,0.1774,0.0915,-0.0415,-0.2147,1004.6218,336.2974,-82.1620,6.8780,49.26679948,-122.90577117,0.00000000,
4.478126,0.1568,0.9569,0.0959,-0.3380,-0.1314,0.1774,0.0915,-0.0415,-0.2147,1004.7536,336.2974,-82.1620,6.8780,49.26679948,-122.90577117,0.00000000,
4.486587,0.1568,0.9569,0.0959,-0.3380,-0.1314,0.1774,0.0915,-0.0415,-0.2147,1004.7536,339.0766,-83.4207,5.5613,49.26679948,-122.90577117,0.00000000,
4.506035,0.1568,0.9569,0.0959,-0.3380,-0.1314,0.1774,0.0478,0.0075,-0.4139,1004.7536,339.0766,-83.4207,5.5613,49.26679948,-122.90577117,0.00000000,
4.507911,0.2647,0.9297,0.0055,-0.3380,-0.1314,0.1774,0.0478,0.0075,-0.4139,1004.7536,339.0766,-83.4207,5.5613,49.26679948,-122.90577117,0.00000000,
4.509277,-0.0857,0.9519,0.0332,-0.3380,-0.1314,0.1774,0.0478,0.0075,-0.4139,1004.7536,339.0766,-83.4207,5.5613,49.26679948,-122.90577117,0.00000000,
4.510689,-0.0907,1.0060,0.0031,-0.3380,-0.1314,0.1774,0.0478,0.0075,-0.4139,1004.7536,339.0766,-83.4207,5.5613,49.26679948,-122.90577117,0.00000000,
4.515346,-0.0907,1.0060,0.0031,0.8579,-0.6596,0.1563,0.0478,0.0075,-0.4139,1004.7536,339.0766,-83.4207,5.5613,49.26679948,-122.90577117,0.00000000,
4.518180,-0.0907,1.0060,0.0031,0.8579,-0.6596,0.1563,0.0478,0.0075,-0.4139,1004.8564,339.0766,-83.4207,5.5613,49.26679948,-122.90577117,0.00000000,
4.543205,-0.0907,1.0060,0.0031,0.8579,-0.6596,0.1563,0.0478,0.0075,-0.4139,1004.8564,338.5580,-83.9918,4.8574,49.26679948,-122.90577117,0.00000000,
4.558023,-0.0907,1.0060,0.0031,0.8579,-0.6596,0.1563,0.0478,0.0075,-0.4139,1004.9255,338.5580,-83.9918,4.8574,49.26679948,-122.90577117,0.00000000,
4.564442,-0.0221,1.0056,0.0424,0.8579,-0.6596,0.1563,0.0478,0.0075,-0.4139,1004.9255,338.5580,-83.9918,4.8574,49.26679948,-122.90577117,0.00000000,
4.565079,-0.0220,0.9938,0.0673,0.8579,-0.6596,0.1563,0.0478,0.0075,-0.4139,1004.9255,338.5580,-83.9918,4.8574,49.26679948,-122.90577117,0.00000000,
4.566263,0.0103,1.0142,0.1055,0.8579,-0.6596,0.1563,0.0478,0.0075,-0.4139,1004.9255,338.5580,-83.9918,4.8574,49.26679948,-122.90577117,0.00000000,
4.571472,0.0103,1.0142,0.1055,0.8579,-0.6596,0.1563,-0.0084,-0.2029,-0.0113,1004.9255,338.5580,-83.9918,4.8574,49.26679948,-122.90577117,0.00000000,
4.573102,0.0328,0.9868,0.0857,0.8579,-0.6596,0.1563,-0.0084,-0.2029,-0.0113,1004.9255,338.5580,-83.9918,4.8574,49.26679948,-122.90577117,0.00000000,
4.581653,0.0328,0.9868,0.0857,-1.0600,-0.1724,-0.3327,-0.0084,-0.2029,-0.0113,1004.9255,338.5580,-83.9918,4.8574,49.26679948,-122.90577117,0.00000000,
4.590790,0.0167,0.8864,0.0204,-1.0600,-0.1724,-0.3327,-0.0084,-0.2029,-0.0113,1004.9255,338.5580,-83.9918,4.8574,49.26679948,-122.90577117,0.00000000,
4.597661,0.0167,0.8864,0.0204,-1.0600,-0.1724,-0.3327,-0.0084,-0.2029,-0.0113,1004.9221,338.5580,-83.9918,4.8574,49.26679948,-122.90577117,0.00000000,
4.600175,0.0167,0.8864,0.0204,-1.0600,-0.1724,-0.3327,-0.0084,-0.2029,-0.0113,1004.9221,342.6372,-84.6428,4.2337,49.26679948,-122.90577117,0.00000000,
4.641994,0.0167,0.8864,0.0204,-1.0600,-0.1724,-0.3327,-0.1293,-0.6044,-0.0084,1004.9221,342.6372,-84.6428,4.2337,49.26679948,-122.90577117,0.00000000,
4.643151,0.0167,0.8864,0.0204,-1.0600,-0.1724,-0.3327,-0.1293,-0.6044,-0.0084,1004.8705,342.6372,-84.6428,4.2337,49.26679948,-122.90577117,0.00000000,
4.647599,0.0167,0.8864,0.0204,-0.6632,-0.1926,0.1338,-0.1293,-0.6044,-0.0084,1004.8705,342.6372,-84.6428,4.2337,49.26679948,-122.90577117,0.00000000,
4.666367,0.0167,0.8864,0.0204,-0.6632,-0.1926,0.1338,-0.1293,-0.6044,-0.0084,1004.8705,346.4841,-84.7022,3.7768,49.26679948,-122.90577117,0.00000000,
4.667725,0.2132,0.8118,0.0806,-0.6632,-0.1926,0.1338,-0.1293,-0.6044,-0.0084,1004.8705,346.4841,-84.7022,3.7768,49.26679948,-122.90577117,0.00000000,
4.668530,0.0517,1.0392,0.0714,-0.6632,-0.1926,0.1338,-0.1293,-0.6044,-0.0084,1004.8705,346.4841,-84.7022,3.7768,49.26679948,-122.90577117,0.00000000,
4.669239,0.0554,1.0093,0.0548,-0.6632,-0.1926,0.1338,-0.1293,-0.6044,-0.0084,1004.8705,346.4841,-84.7022,3.7768,49.26679948,-122.90577117,0.00000000,
4.670035,-0.0154,0.8048,0.0345,-0.6632,-0.1926,0.1338,-0.1293,-0.6044,-0.0084,1004.8705,346.4841,-84.7022,3.7768,49.26679948,-122.90577117,0.00000000,
4.678110,-0.0154,0.8048,0.0345,-0.6632,-0.1926,0.1338,-0.1293,-0.6044,-0.0084,1004.7768,346.4841,-84.7022,3.7768,49.26679948,-122.90577117,0.00000000,
4.703771,-0.0154,0.8048,0.0345,-0.6632,-0.1926,0.1338,-0.1446,0.0195,-0.0366,1004.7768,346.4841,-84.7022,3.7768,49.26679948,-122.90577117,0.00000000,
4.713446,-0.0154,0.8048,0.0345,0.3853,-0.5271,-0.1792,-0.1446,0.0195,-0.0366,1004.7768,346.4841,-84.7022,3.7768,49.26679948,-122.90577117,0.00000000,
4.718306,-0.0154,0.8048,0.0345,0.3853,-0.5271,-0.1792,-0.1446,0.0195,-0.0366,1004.6909,346.4841,-84.7022,3.7768,49.26679948,-122.90577117,0.00000000,
4.722231,-0.0154,0.8048,0.0345,0.3853,-0.5271,-0.1792,-0.1446,0.0195,-0.0366,1004.6909,345.6719,-84.2800,3.8557,49.26679948,-122.90577117,0.00000000,
4.723929,0.1686,0.9521,0.0071,0.3853,-0.5271,-0.1792,-0.1446,0.0195,-0.0366,1004.6909,345.6719,-84.2800,3.8557,49.26679948,-122.90577117,0.00000000,
4.724331,0.0938,1.0160,0.1250,0.3853,-0.5271,-0.1792,-0.1446,0.0195,-0.0366,1004.6909,345.6719,-84.2800,3.8557,49.26679948,-122.90577117,0.00000000,
4.725000,0.0013,1.0309,0.0913,0.3853,-0.5271,-0.1792,-0.1446,0.0195,-0.0366,1004.6909,345.6719,-84.2800,3.8557,49.26679948,-122.90577117,0.00000000,
4.758239,0.0013,1.0309,0.0913,0.3853,-0.5271,-0.1792,-0.1446,0.0195,-0.0366,1004.5737,345.6719,-84.2800,3.8557,49.26679948,-122.90577117,0.00000000,
4.769264,0.0013,1.0309,0.0913,0.3853,-0.5271,-0.1792,-0.1355,0.2036,0.1150,1004.5737,345.6719,-84.2800,3.8557,49.26679948,-122.90577117,0.00000000,
4.780101,0.0013,1.0309,0.0913,-0.0648,-0.3776,-0.1521,-0.1355,0.2036,0.1150,1004.5737,345.6719,-84.2800,3.8557,49.26679948,-122.90577117,0.00000000,
4.781256,0.0013,1.0309,0.0913,-0.0648,-0.3776,-0.1521,-0.1355,0.2036,0.1150,1004.5737,343.7231,-83.3863,4.6086,49.26679948,-122.90577117,0.00000000,
4.800128,0.0013,1.0309,0.0913,-0.0648,-0.3776,-0.1521,-0.1355,0.2036,0.1150,1004.4509,343.7231,-83.3863,4.6086,49.26679948,-122.90577117,0.00000000,
4.801583,-0.0872,0.9214,0.0714,-0.0648,-0.3776,-0.1521,-0.1355,0.2036,0.1150,1004.4509,343.7231,-83.3863,4.6086,49.26679948,-122.90577117,0.00000000,
4.802460,-0.1364,0.8115,0.0778,-0.0648,-0.3776,-0.1521,-0.1355,0.2036,0.1150,1004.4509,343.7231,-83.3863,4.6086,49.26679948,-122.90577117,0.00000000,
4.803279,-0.0691,0.7843,0.0722,-0.0648,-0.3776,-0.1521,-0.1355,0.2036,0.1150,1004.4509,343.7231,-83.3863,4.6086,49.26679948,-122.90577117,0.00000000,
4.804072,-0.0049,0.8200,0.0602,-0.0648,-0.3776,-0.1521,-0.1355,0.2036,0.1150,1004.4509,343.7231,-83.3863,4.6086,49.26679948,-122.90577117,0.00000000,
4.827477,0.1751,0.9941,0.0768,-0.0648,-0.3776,-0.1521,-0.1355,0.2036,0.1150,1004.4509,343.7231,-83.3863,4.6086,49.26679948,-122.90577117,0.00000000,
4.835660,0.1751,0.9941,0.0768,-0.0648,-0.3776,-0.1521,-0.2119,0.2055,0.6591,1004.4509,343.7231,-83.3863,4.6086,49.26679948,-122.90577117,0.00000000,
4.837413,0.1751,0.9941,0.0768,-0.0648,-0.3776,-0.1521,-0.2119,0.2055,0.6591,1004.4001,343.7231,-83.3863,4.6086,49.26679948,-122.90577117,0.00000000,
4.844671,0.1751,0.9941,0.0768,-1.8093,-1.1430,-0.1837,-0.2119,0.2055,0.6591,1004.4001,343.7231,-83.3863,4.6086,49.26679948,-122.90577117,0.00000000,
4.845972,0.1751,0.9941,0.0768,-1.8093,-1.1430,-0.1837,-0.2119,0.2055,0.6591,1004.4001,344.5017,-82.0758,5.6843,49.26679948,-122.90577117,0.00000000,
4.878757,0.1751,0.9941,0.0768,-1.8093,-1.1430,-0.1837,-0.2119,0.2055,0.6591,1004.3608,344.5017,-82.0758,5.6843,49.26679948,-122.90577117,0.00000000,
4.884630,0.2216,1.0712,0.0874,-1.8093,-1.1430,-0.1837,-0.2119,0.2055,0.6591,1004.3608,344.5017,-82.0758,5.6843,49.26679948,-122.90577117,0.00000000,
4.885873,0.1468,0.9989,0.1332,-1.8093,-1.1430,-0.1837,-0.2119,0.2055,0.6591,1004.3608,344.5017,-82.0758,5.6843,49.26679948,-122.90577117,0.00000000,
4.886514,0.3362,1.2343,0.0912,-1.8093,-1.1430,-0.1837,-0.2119,0.2055,0.6591,1004.3608,344.5017,-82.0758,5.6843,49.26679948,-122.90577117,0.00000000,
4.892614,0.1977,1.1554,0.1525,-1.8093,-1.1430,-0.1837,-0.2119,0.2055,0.6591,1004.3608,344.5017,-82.0758,5.6843,49.26679948,-122.90577117,0.00000000,
4.902042,0.1977,1.1554,0.1525,-1.8093,-1.1430,-0.1837,-0.0665,0.0321,-0.0126,1004.3608,344.5017,-82.0758,5.6843,49.26679948,-122.90577117,0.00000000,
4.911692,0.1977,1.1554,0.1525,0.5148,0.1211,-0.0864,-0.0665,0.0321,-0.0126,1004.3608,344.5017,-82.0758,5.6843,49.26679948,-122.90577117,0.00000000,
4.917868,0.1977,1.1554,0.1525,0.5148,0.1211,-0.0864,-0.0665,0.0321,-0.0126,1004.3583,344.5017,-82.0758,5.6843,49.26679948,-122.90577117,0.00000000,
4.959256,0.1977,1.1554,0.1525,0.5148,0.1211,-0.0864,-0.0665,0.0321,-0.0126,1004.3806,344.5017,-82.0758,5.6843,49.26679948,-122.90577117,0.00000000,
4.960799,0.0980,1.1025,0.1349,0.5148,0.1211,-0.0864,-0.0665,0.0321,-0.0126,1004.3806,344.5017,-82.0758,5.6843,49.26679948,-122.90577117,0.00000000,
4.962087,0.0955,1.1301,0.1146,0.5148,0.1211,-0.0864,-0.0665,0.0321,-0.0126,1004.3806,344.5017,-82.0758,5.6843,49.26679948,-122.90577117,0.00000000,
4.963004,-0.0141,1.0658,0.1424,0.5148,0.1211,-0.0864,-0.0665,0.0321,-0.0126,1004.3806,344.5017,-82.0758,5.6843,49.26679948,-122.90577117,0.00000000,
4.963936,-0.0141,1.0658,0.1424,0.5148,0.1211,-0.0864,-0.0665,0.0321,-0.0126,1004.3806,343.5297,-82.0247,5.6533,49.26679948,-122.90577117,0.00000000,
4.967765,-0.0141,1.0658,0.1424,0.5148,0.1211,-0.0864,0.0228,-0.0051,-0.2475,1004.3806,343.5297,-82.0247,5.6533,49.26679948,-122.90577117,0.00000000,
4.977447,-0.0141,1.0658,0.1424,1.0001,1.5757,0.2748,0.0228,-0.0051,-0.2475,1004.3806,343.5297,-82.0247,5.6533,49.26679948,-122.90577117,0.00000000,
4.998228,-0.0141,1.0658,0.1424,1.0001,1.5757,0.2748,0.0228,-0.0051,-0.2475,1004.4133,343.5297,-82.0247,5.6533,49.26679948,-122.90577117,0.00000000,
5.025317,-0.0141,1.0658,0.1424,1.0001,1.5757,0.2748,0.0228,-0.0051,-0.2475,1004.4133,342.4213,-82.1553,5.4665,49.26679948,-122.90577117,0.00000000,
5.026699,0.0012,1.0129,0.1095,1.0001,1.5757,0.2748,0.0228,-0.0051,-0.2475,1004.4133,342.4213,-82.1553,5.4665,49.26679948,-122.90577117,0.00000000,
5.027530,0.0634,1.0049,0.0911,1.0001,1.5757,0.2748,0.0228,-0.0051,-0.2475,1004.4133,342.4213,-82.1553,5.4665,49.26679948,-122.90577117,0.00000000,
5.028345,0.0124,0.9686,0.1063,1.0001,1.5757,0.2748,0.0228,-0.0051,-0.2475,1004.4133,342.4213,-82.1553,5.4665,49.26679948,-122.90577117,0.00000000,
5.029230,0.0898,1.0195,0.0589,1.0001,1.5757,0.2748,0.0228,-0.0051,-0.2475,1004.4133,342.4213,-82.1553,5.4665,49.26679948,-122.90577117,0.00000000,
5.034755,0.0898,1.0195,0.0589,1.0001,1.5757,0.2748,-0.0025,-0.0376,-0.0461,1004.4133,342.4213,-82.1553,5.4665,49.26679948,-122.90577117,0.00000000,
5.038234,0.0898,1.0195,0.0589,1.0001,1.5757,0.2748,-0.0025,-0.0376,-0.0461,1004.4457,342.4213,-82.1553,5.4665,49.26679948,-122.90577117,0.00000000,
5.043361,0.0898,1.0195,0.0589,-0.5620,0.5324,0.1342,-0.0025,-0.0376,-0.0461,1004.4457,342.4213,-82.1553,5.4665,49.26679948,-122.90577117,0.00000000,
5.044852,0.0869,0.9922,0.0931,-0.5620,0.5324,0.1342,-0.0025,-0.0376,-0.0461,1004.4457,342.4213,-82.1553,5.4665,49.26679948,-122.90577117,0.00000000,
5.075137,0.0940,0.9936,0.0886,-0.5620,0.5324,0.1342,-0.0025,-0.0376,-0.0461,1004.4457,342.4213,-82.1553,5.4665,49.26679948,-122.90577117,0.00000000,
5.077657,0.0940,0.9936,0.0886,-0.5620,0.5324,0.1342,-0.0025,-0.0376,-0.0461,1004.4816,342.4213,-82.1553,5.4665,49.26679948,-122.90577117,0.00000000,
5.080226,0.0940,0.9936,0.0886,-0.5620,0.5324,0.1342,-0.0025,-0.0376,-0.0461,1004.4816,344.3409,-82.4790,4.9066,49.26679948,-122.90577117,0.00000000,
5.099399,0.0940,0.9936,0.0886,-0.5620,0.5324,0.1342,-0.0130,0.1082,-0.0095,1004.4816,344.3409,-82.4790,4.9066,49.26679948,-122.90577117,0.00000000,
5.109393,0.0940,0.9936,0.0886,-0.1711,-0.0070,-0.1050,-0.0130,0.1082,-0.0095,1004.4816,344.3409,-82.4790,4.9066,49.26679948,-122.90577117,0.00000000,
5.117747,0.0940,0.9936,0.0886,-0.1711,-0.0070,-0.1050,-0.0130,0.1082,-0.0095,1004.5078,344.3409,-82.4790,4.9066,49.26679948,-122.90577117,0.00000000,
5.128105,0.0692,1.0248,0.0820,-0.1711,-0.0070,-0.1050,-0.0130,0.1082,-0.0095,1004.5078,344.3409,-82.4790,4.9066,49.26679948,-122.90577117,0.00000000,
5.128960,0.0903,1.0366,0.0720,-0.1711,-0.0070,-0.1050,-0.0130,0.1082,-0.0095,1004.5078,344.3409,-82.4790,4.9066,49.26679948,-122.90577117,0.00000000,
5.129460,0.0641,1.0538,0.0900,-0.1711,-0.0070,-0.1050,-0.0130,0.1082,-0.0095,1004.5078,344.3409,-82.4790,4.9066,49.26679948,-122.90577117,0.00000000,
5.138791,0.0641,1.0538,0.0900,-0.1711,-0.0070,-0.1050,-0.0130,0.1082,-0.0095,1004.5078,344.5348,-82.6167,4.6709,49.26679948,-122.90577117,0.00000000,
5.159114,0.0641,1.0538,0.0900,-0.1711,-0.0070,-0.1050,-0.0130,0.1082,-0.0095,1004.5156,344.5348,-82.6167,4.6709,49.26679948,-122.90577117,0.00000000,
5.165473,0.0641,1.0538,0.0900,-0.1711,-0.0070,-0.1050,-0.0331,0.0381,0.0331,1004.5156,344.5348,-82.6167,4.6709,49.26679948,-122.90577117,0.00000000,
5.175154,0.0641,1.0538,0.0900,-0.0321,0.2470,-0.1889,-0.0331,0.0381,0.0331,1004.5156,344.5348,-82.6167,4.6709,49.26679948,-122.90577117,0.00000000,
5.194654,0.0186,1.0236,0.0961,-0.0321,0.2470,-0.1889,-0.0331,0.0381,0.0331,1004.5156,344.5348,-82.6167,4.6709,49.26679948,-122.90577117,0.00000000,
5.195481,-0.0298,1.0061,0.1224,-0.0321,0.2470,-0.1889,-0.0331,0.0381,0.0331,1004.5156,344.5348,-82.6167,4.6709,49.26679948,-122.90577117,0.00000000,
5.195891,-0.0040,1.0462,0.0993,-0.0321,0.2470,-0.1889,-0.0331,0.0381,0.0331,1004.5156,344.5348,-82.6167,4.6709,49.26679948,-122.90577117,0.00000000,
5.196295,0.0783,1.0686,0.0609,-0.0321,0.2470,-0.1889,-0.0331,0.0381,0.0331,1004.5156,344.5348,-82.6167,4.6709,49.26679948,-122.90577117,0.00000000,
5.197915,0.0783,1.0686,0.0609,-0.0321,0.2470,-0.1889,-0.0331,0.0381,0.0331,1004.4958,344.5348,-82.6167,4.6709,49.26679948,-122.90577117,0.00000000,
5.203212,0.0783,1.0686,0.0609,-0.0321,0.2470,-0.1889,-0.0331,0.0381,0.0331,1004.4958,344.2793,-82.4806,4.8911,49.26679948,-122.90577117,0.00000000,
5.231884,0.0783,1.0686,0.0609,-0.0321,0.2470,-0.1889,-0.0777,0.0736,0.1261,1004.4958,344.2793,-82.4806,4.8911,49.26679948,-122.90577117,0.00000000,
5.237789,0.0783,1.0686,0.0609,-0.0321,0.2470,-0.1889,-0.0777,0.0736,0.1261,1004.4199,344.2793,-82.4806,4.8911,49.26679948,-122.90577117,0.00000000,
5.240544,0.0783,1.0686,0.0609,-0.7982,0.2745,-0.0413,-0.0777,0.0736,0.1261,1004.4199,344.2793,-82.4806,4.8911,49.26679948,-122.90577117,0.00000000,
5.260296,0.0783,1.0686,0.0609,-0.7982,0.2745,-0.0413,-0.0777,0.0736,0.1261,1004.4199,345.6771,-82.3266,4.7626,49.26679948,-122.90577117,0.00000000,
5.261054,0.1238,1.0577,0.0823,-0.7982,0.2745,-0.0413,-0.0777,0.0736,0.1261,1004.4199,345.6771,-82.3266,4.7626,49.26679948,-122.90577117,0.00000000,
5.261493,-0.0675,0.9569,0.0847,-0.7982,0.2745,-0.0413,-0.0777,0.0736,0.1261,1004.4199,345.6771,-82.3266,4.7626,49.26679948,-122.90577117,0.00000000,
5.261885,0.0646,0.9720,0.1379,-0.7982,0.2745,-0.0413,-0.0777,0.0736,0.1261,1004.4199,345.6771,-82.3266,4.7626,49.26679948,-122.90577117,0.00000000,
5.277687,0.0646,0.9720,0.1379,-0.7982,0.2745,-0.0413,-0.0777,0.0736,0.1261,1004.3679,345.6771,-82.3266,4.7626,49.26679948,-122.90577117,0.00000000,
5.285573,0.2239,1.0175,0.1453,-0.7982,0.2745,-0.0413,-0.0777,0.0736,0.1261,1004.3679,345.6771,-82.3266,4.7626,49.26679948,-122.90577117,0.00000000,
5.288425,0.2030,0.9980,0.1174,-0.7982,0.2745,-0.0413,-0.0777,0.0736,0.1261,1004.3679,345.6771,-82.3266,4.7626,49.26679948,-122.90577117,0.00000000,
5.298637,0.2030,0.9980,0.1174,-0.7982,0.2745,-0.0413,-0.1410,-0.2637,-0.0480,1004.3679,345.6771,-82.3266,4.7626,49.26679948,-122.90577117,0.00000000,
5.307544,0.2030,0.9980,0.1174,-0.3494,0.0882,-0.1831,-0.1410,-0.2637,-0.0480,1004.3679,345.6771,-82.3266,4.7626,49.26679948,-122.90577117,0.00000000,
5.317251,0.2030,0.9980,0.1174,-0.3494,0.0882,-0.1831,-0.1410,-0.2637,-0.0480,1004.3471,345.6771,-82.3266,4.7626,49.26679948,-122.90577117,0.00000000,
5.329267,0.2030,0.9980,0.1174,-0.3494,0.0882,-0.1831,-0.1410,-0.2637,-0.0480,1004.3471,347.9573,-82.3622,4.2572,49.26679948,-122.90577117,0.00000000,
5.358016,0.2030,0.9980,0.1174,-0.3494,0.0882,-0.1831,-0.1410,-0.2637,-0.0480,1004.3527,347.9573,-82.3622,4.2572,49.26679948,-122.90577117,0.00000000,
5.364102,0.2030,0.9980,0.1174,-0.3494,0.0882,-0.1831,-0.0884,0.0749,0.1190,1004.3527,347.9573,-82.3622,4.2572,49.26679948,-122.90577117,0.00000000,
5.364965,0.1571,0.8694,0.0702,-0.3494,0.0882,-0.1831,-0.0884,0.0749,0.1190,1004.3527,347.9573,-82.3622,4.2572,49.26679948,-122.90577117,0.00000000,
5.365466,-0.0158,0.8907,0.1511,-0.3494,0.0882,-0.1831,-0.0884,0.0749,0.1190,1004.3527,347.9573,-82.3622,4.2572,49.26679948,-122.90577117,0.00000000,
5.365870,0.0029,1.0193,0.1290,-0.3494,0.0882,-0.1831,-0.0884,0.0749,0.1190,1004.3527,347.9573,-82.3622,4.2572,49.26679948,-122.90577117,0.00000000,
5.366253,0.0852,0.9808,0.1170,-0.3494,0.0882,-0.1831,-0.0884,0.0749,0.1190,1004.3527,347.9573,-82.3622,4.2572,49.26679948,-122.90577117,0.00000000,
5.373425,0.0852,0.9808,0.1170,0.8551,-0.4082,-0.0311,-0.0884,0.0749,0.1190,1004.3527,347.9573,-82.3622,4.2572,49.26679948,-122.90577117,0.00000000,
5.382462,0.0852,0.9808,0.1170,0.8551,-0.4082,-0.0311,-0.0884,0.0749,0.1190,1004.3527,344.3403,-81.3636,5.4843,49.26679948,-122.90577117,0.00000000,
5.397795,0.0852,0.9808,0.1170,0.8551,-0.4082,-0.0311,-0.0884,0.0749,0.1190,1004.3698,344.3403,-81.3636,5.4843,49.26679948,-122.90577117,0.00000000,
5.429835,0.0852,0.9808,0.1170,0.8551,-0.4082,-0.0311,-0.0872,0.1208,0.1878,1004.3698,344.3403,-81.3636,5.4843,49.26679948,-122.90577117,0.00000000,
5.430661,0.1168,0.9880,0.1104,0.8551,-0.4082,-0.0311,-0.0872,0.1208,0.1878,1004.3698,344.3403,-81.3636,5.4843,49.26679948,-122.90577117,0.00000000,
5.431102,0.0948,0.9819,0.1193,0.8551,-0.4082,-0.0311,-0.0872,0.1208,0.1878,1004.3698,344.3403,-81.3636,5.4843,49.26679948,-122.90577117,0.00000000,
5.431485,0.1066,0.9804,0.1061,0.8551,-0.4082,-0.0311,-0.0872,0.1208,0.1878,1004.3698,344.3403,-81.3636,5.4843,49.26679948,-122.90577117,0.00000000,
5.437825,0.1066,0.9804,0.1061,0.8551,-0.4082,-0.0311,-0.0872,0.1208,0.1878,1004.3891,344.3403,-81.3636,5.4843,49.26679948,-122.90577117,0.00000000,
5.439567,0.1066,0.9804,0.1061,-0.5381,-0.1233,0.0046,-0.0872,0.1208,0.1878,1004.3891,344.3403,-81.3636,5.4843,49.26679948,-122.90577117,0.00000000,
5.440051,0.1066,0.9804,0.1061,-0.5381,-0.1233,0.0046,-0.0872,0.1208,0.1878,1004.3891,344.3164,-80.8968,5.7192,49.26679948,-122.90577117,0.00000000,
5.477461,0.1066,0.9804,0.1061,-0.5381,-0.1233,0.0046,-0.0872,0.1208,0.1878,1004.4191,344.3164,-80.8968,5.7192,49.26679948,-122.90577117,0.00000000,
5.495956,0.1066,0.9804,0.1061,-0.5381,-0.1233,0.0046,-0.0964,0.2027,0.1242,1004.4191,344.3164,-80.8968,5.7192,49.26679948,-122.90577117,0.00000000,
5.496864,0.1199,0.9833,0.0974,-0.5381,-0.1233,0.0046,-0.0964,0.2027,0.1242,1004.4191,344.3164,-80.8968,5.7192,49.26679948,-122.90577117,0.00000000,
5.497269,0.1051,0.9832,0.1274,-0.5381,-0.1233,0.0046,-0.0964,0.2027,0.1242,1004.4191,344.3164,-80.8968,5.7192,49.26679948,-122.90577117,0.00000000,
5.497719,0.0957,0.9806,0.1342,-0.5381,-0.1233,0.0046,-0.0964,0.2027,0.1242,1004.4191,344.3164,-80.8968,5.7192,49.26679948,-122.90577117,0.00000000,
5.498128,0.1253,0.9736,0.1398,-0.5381,-0.1233,0.0046,-0.0964,0.2027,0.1242,1004.4191,344.3164,-80.8968,5.7192,49.26679948,-122.90577117,0.00000000,
5.505741,0.1253,0.9736,0.1398,-0.5381,-0.1233,0.0046,-0.0964,0.2027,0.1242,1004.4191,343.0179,-80.4302,6.0856,49.26679948,-122.90577117,0.00000000,
5.506472,0.1253,0.9736,0.1398,0.0239,-0.0806,-0.1940,-0.0964,0.2027,0.1242,1004.4191,343.0179,-80.4302,6.0856,49.26679948,-122.90577117,0.00000000,
5.517907,0.1253,0.9736,0.1398,0.0239,-0.0806,-0.1940,-0.0964,0.2027,0.1242,1004.4470,343.0179,-80.4302,6.0856,49.26679948,-122.90577117,0.00000000,
5.524629,0.1044,0.9947,0.1563,0.0239,-0.0806,-0.1940,-0.0964,0.2027,0.1242,1004.4470,343.0179,-80.4302,6.0856,49.26679948,-122.90577117,0.00000000,
5.534438,0.0936,0.9773,0.1991,0.0239,-0.0806,-0.1940,-0.0964,0.2027,0.1242,1004.4470,343.0179,-80.4302,6.0856,49.26679948,-122.90577117,0.00000000,
5.557842,0.0936,0.9773,0.1991,0.0239,-0.0806,-0.1940,-0.0964,0.2027,0.1242,1004.4870,343.0179,-80.4302,6.0856,49.26679948,-122.90577117,0.00000000,
5.561186,0.0936,0.9773,0.1991,0.0239,-0.0806,-0.1940,-0.0664,0.1155,0.1170,1004.4870,343.0179,-80.4302,6.0856,49.26679948,-122.90577117,0.00000000,
5.571606,0.0936,0.9773,0.1991,-0.0388,-0.0477,0.0419,-0.0664,0.1155,0.1170,1004.4870,343.0179,-80.4302,6.0856,49.26679948,-122.90577117,0.00000000,
5.594193,0.0436,0.9889,0.2383,-0.0388,-0.0477,0.0419,-0.0664,0.1155,0.1170,1004.4870,343.0179,-80.4302,6.0856,49.26679948,-122.90577117,0.00000000,
5.595006,0.0707,0.9609,0.2371,-0.0388,-0.0477,0.0419,-0.0664,0.1155,0.1170,1004.4870,343.0179,-80.4302,6.0856,49.26680989,-122.90574267,0.00000000,
5.595507,0.1040,0.9944,0.2403,-0.0388,-0.0477,0.0419,-0.0664,0.1155,0.1170,1004.4870,343.0179,-80.4302,6.0856,49.26680989,-122.90574267,0.00000000,
5.598548,0.1040,0.9944,0.2403,-0.0388,-0.0477,0.0419,-0.0664,0.1155,0.1170,1004.5275,343.0179,-80.4302,6.0856,49.26680989,-122.90574267,0.00000000,
5.609361,0.1185,0.9936,0.2384,-0.0388,-0.0477,0.0419,-0.0664,0.1155,0.1170,1004.5275,343.0179,-80.4302,6.0856,49.26680989,-122.90574267,0.00000000,
5.619229,0.1185,0.9936,0.2384,-0.0388,-0.0477,0.0419,-0.0664,0.1155,0.1170,1004.5275,342.0917,-79.9463,6.5197,49.26680989,-122.90574267,0.00000000,
5.627857,0.1185,0.9936,0.2384,-0.0388,-0.0477,0.0419,0.0461,-0.2206,0.1069,1004.5275,342.0917,-79.9463,6.5197,49.26680989,-122.90574267,0.00000000,
5.638029,0.1185,0.9936,0.2384,-0.3964,-0.0762,0.8237,0.0461,-0.2206,0.1069,1004.5275,342.0917,-79.9463,6.5197,49.26680989,-122.90574267,0.00000000,
5.639311,0.1185,0.9936,0.2384,-0.3964,-0.0762,0.8237,0.0461,-0.2206,0.1069,1004.5551,342.0917,-79.9463,6.5197,49.26680989,-122.90574267,0.00000000,
5.666228,0.2237,0.9881,0.1660,-0.3964,-0.0762,0.8237,0.0461,-0.2206,0.1069,1004.5551,342.0917,-79.9463,6.5197,49.26680989,-122.90574267,0.00000000,
5.667543,0.2070,0.9820,0.1301,-0.3964,-0.0762,0.8237,0.0461,-0.2206,0.1069,1004.5551,342.0917,-79.9463,6.5197,49.26680989,-122.90574267,0.00000000,
5.668391,0.1945,0.9569,0.1029,-0.3964,-0.0762,0.8237,0.0461,-0.2206,0.1069,1004.5551,342.0917,-79.9463,6.5197,49.26680989,-122.90574267,0.00000000,
5.677995,0.1945,0.9569,0.1029,-0.3964,-0.0762,0.8237,0.0461,-0.2206,0.1069,1004.5578,342.0917,-79.9463,6.5197,49.26680989,-122.90574267,0.00000000,
5.684582,0.2570,0.9696,0.0679,-0.3964,-0.0762,0.8237,0.0461,-0.2206,0.1069,1004.5578,342.0917,-79.9463,6.5197,49.26680989,-122.90574267,0.00000000,
5.685763,0.2570,0.9696,0.0679,-0.3964,-0.0762,0.8237,0.0461,-0.2206,0.1069,1004.5578,343.1747,-79.6728,6.6344,49.26680989,-122.90574267,0.00000000,
5.693706,0.2570,0.9696,0.0679,-0.3964,-0.0762,0.8237,0.1513,-0.1098,-0.1476,1004.5578,343.1747,-79.6728,6.6344,49.26680989,-122.90574267,0.00000000,
5.703866,0.2570,0.9696,0.0679,0.5214,0.0124,0.5864,0.1513,-0.1098,-0.1476,1004.5578,343.1747,-79.6728,6.6344,49.26680989,-122.90574267,0.00000000,
5.718191,0.2570,0.9696,0.0679,0.5214,0.0124,0.5864,0.1513,-0.1098,-0.1476,1004.5600,343.1747,-79.6728,6.6344,49.26680989,-122.90574267,0.00000000,
5.733435,0.2022,0.9853,0.0929,0.5214,0.0124,0.5864,0.1513,-0.1098,-0.1476,1004.5600,343.1747,-79.6728,6.6344,49.26680989,-122.90574267,0.00000000,
5.734482,0.1782,0.9672,0.1153,0.5214,0.0124,0.5864,0.1513,-0.1098,-0.1476,1004.5600,343.1747,-79.6728,6.6344,49.26680989,-122.90574267,0.00000000,
5.740867,0.1782,0.9672,0.1153,0.5214,0.0124,0.5864,0.1513,-0.1098,-0.1476,1004.5600,342.6707,-80.0271,6.3531,49.26680989,-122.90574267,0.00000000,
5.757821,0.1782,0.9672,0.1153,0.5214,0.0124,0.5864,0.1513,-0.1098,-0.1476,1004.5715,342.6707,-80.0271,6.3531,49.26680989,-122.90574267,0.00000000,
5.760338,0.1782,0.9672,0.1153,0.5214,0.0124,0.5864,0.2443,0.1688,-0.3638,1004.5715,342.6707,-80.0271,6.3531,49.26680989,-122.90574267,0.00000000,
5.761950,0.2107,0.9577,0.1237,0.5214,0.0124,0.5864,0.2443,0.1688,-0.3638,1004.5715,342.6707,-80.0271,6.3531,49.26680989,-122.90574267,0.00000000,
5.763243,0.1884,0.9731,0.1220,0.5214,0.0124,0.5864,0.2443,0.1688,-0.3638,1004.5715,342.6707,-80.0271,6.3531,49.26680989,-122.90574267,0.00000000,
5.769999,0.1884,0.9731,0.1220,1.1308,-0.2008,-0.2285,0.2443,0.1688,-0.3638,1004.5715,342.6707,-80.0271,6.3531,49.26680989,-122.90574267,0.00000000,
5.798582,0.1884,0.9731,0.1220,1.1308,-0.2008,-0.2285,0.2443,0.1688,-0.3638,1004.5707,342.6707,-80.0271,6.3531,49.26680989,-122.90574267,0.00000000,
5.800050,0.1884,0.9731,0.1220,1.1308,-0.2008,-0.2285,0.2443,0.1688,-0.3638,1004.5707,341.0005,-81.3219,5.6041,49.26680989,-122.90574267,0.00000000,
5.826103,0.1884,0.9731,0.1220,1.1308,-0.2008,-0.2285,0.3187,0.2380,-0.5172,1004.5707,341.0005,-81.3219,5.6041,49.26680989,-122.90574267,0.00000000,
5.827428,0.1383,0.9561,0.1104,1.1308,-0.2008,-0.2285,0.3187,0.2380,-0.5172,1004.5707,341.0005,-81.3219,5.6041,49.26680989,-122.90574267,0.00000000,
5.828262,0.0712,0.9636,0.1283,1.1308,-0.2008,-0.2285,0.3187,0.2380,-0.5172,1004.5707,341.0005,-81.3219,5.6041,49.26680989,-122.90574267,0.00000000,
5.829130,0.0297,0.9873,0.1828,1.1308,-0.2008,-0.2285,0.3187,0.2380,-0.5172,1004.5707,341.0005,-81.3219,5.6041,49.26680989,-122.90574267,0.00000000,
5.835613,0.0297,0.9873,0.1828,1.0751,-0.2903,0.1963,0.3187,0.2380,-0.5172,1004.5707,341.0005,-81.3219,5.6041,49.26680989,-122.90574267,0.00000000,
5.836954,0.0297,0.9873,0.1828,1.0751,-0.2903,0.1963,0.3187,0.2380,-0.5172,1004.6039,341.0005,-81.3219,5.6041,49.26680989,-122.90574267,0.00000000,
5.845099,-0.0470,0.9741,0.1984,1.0751,-0.2903,0.1963,0.3187,0.2380,-0.5172,1004.6039,341.0005,-81.3219,5.6041,49.26680989,-122.90574267,0.00000000,
5.864038,-0.0470,0.9741,0.1984,1.0751,-0.2903,0.1963,0.3187,0.2380,-0.5172,1004.6039,340.0006,-82.8884,4.3303,49.26680989,-122.90574267,0.00000000,
5.878302,-0.0470,0.9741,0.1984,1.0751,-0.2903,0.1963,0.3187,0.2380,-0.5172,1004.6113,340.0006,-82.8884,4.3303,49.26680989,-122.90574267,0.00000000,
5.892431,-0.0470,0.9741,0.1984,1.0751,-0.2903,0.1963,0.3481,0.1323,-0.5157,1004.6113,340.0006,-82.8884,4.3303,49.26680989,-122.90574267,0.00000000,
5.894332,0.0382,1.0068,0.1619,1.0751,-0.2903,0.1963,0.3481,0.1323,-0.5157,1004.6113,340.0006,-82.8884,4.3303,49.26680989,-122.90574267,0.00000000,
5.895453,0.1240,1.0426,0.0811,1.0751,-0.2903,0.1963,0.3481,0.1323,-0.5157,1004.6113,340.0006,-82.8884,4.3303,49.26680989,-122.90574267,0.00000000,
5.896467,0.0404,0.9979,0.0323,1.0751,-0.2903,0.1963,0.3481,0.1323,-0.5157,1004.6113,340.0006,-82.8884,4.3303,49.26680989,-122.90574267,0.00000000,
5.901996,0.0404,0.9979,0.0323,-0.1618,-0.1930,0.7914,0.3481,0.1323,-0.5157,1004.6113,340.0006,-82.8884,4.3303,49.26680989,-122.90574267,0.00000000,
5.918328,0.0404,0.9979,0.0323,-0.1618,-0.1930,0.7914,0.3481,0.1323,-0.5157,1004.6154,340.0006,-82.8884,4.3303,49.26680989,-122.90574267,0.00000000,
5.920093,0.0404,0.9979,0.0323,-0.1618,-0.1930,0.7914,0.3481,0.1323,-0.5157,1004.6154,342.4327,-84.5613,2.2133,49.26680989,-122.90574267,0.00000000,
5.960017,0.0404,0.9979,0.0323,-0.1618,-0.1930,0.7914,0.3481,0.1323,-0.5157,1004.6320,342.4327,-84.5613,2.2133,49.26680989,-122.90574267,0.00000000,
5.962194,0.0404,0.9979,0.0323,-0.1618,-0.1930,0.7914,0.2458,0.2605,-0.5848,1004.6320,342.4327,-84.5613,2.2133,49.26680989,-122.90574267,0.00000000,
5.963703,0.0984,0.9819,0.0280,-0.1618,-0.1930,0.7914,0.2458,0.2605,-0.5848,1004.6320,342.4327,-84.5613,2.2133,49.26680989,-122.90574267,0.00000000,
5.965136,0.1078,1.0022,-0.0497,-0.1618,-0.1930,0.7914,0.2458,0.2605,-0.5848,1004.6320,342.4327,-84.5613,2.2133,49.26680989,-122.90574267,0.00000000,
5.966679,-0.0859,0.9848,-0.0072,-0.1618,-0.1930,0.7914,0.2458,0.2605,-0.5848,1004.6320,342.4327,-84.5613,2.2133,49.26680989,-122.90574267,0.00000000,
5.968161,-0.0859,0.9848,-0.0072,0.6872,0.1232,-0.0019,0.2458,0.2605,-0.5848,1004.6320,342.4327,-84.5613,2.2133,49.26680989,-122.90574267,0.00000000,
5.986660,-0.0859,0.9848,-0.0072,0.6872,0.1232,-0.0019,0.2458,0.2605,-0.5848,1004.6320,342.6129,-85.8599,0.4106,49.26680989,-122.90574267,0.00000000,
5.998401,-0.0859,0.9848,-0.0072,0.6872,0.1232,-0.0019,0.2458,0.2605,-0.5848,1004.6530,342.6129,-85.8599,0.4106,49.26680989,-122.90574267,0.00000000,
6.005257,-0.0145,0.9954,0.0391,0.6872,0.1232,-0.0019,0.2458,0.2605,-0.5848,1004.6530,342.6129,-85.8599,0.4106,49.26680989,-122.90574267,0.00000000,
6.006647,0.0465,1.0472,0.0601,0.6872,0.1232,-0.0019,0.2458,0.2605,-0.5848,1004.6530,342.6129,-85.8599,0.4106,49.26680989,-122.90574267,0.00000000,
6.007426,-0.0632,1.0386,0.0779,0.6872,0.1232,-0.0019,0.2458,0.2605,-0.5848,1004.6530,342.6129,-85.8599,0.4106,49.26680989,-122.90574267,0.00000000,
6.024005,-0.0632,1.0386,0.0779,0.6872,0.1232,-0.0019,0.1483,0.2274,-0.5607,1004.6530,342.6129,-85.8599,0.4106,49.26680989,-122.90574267,0.00000000,
6.033741,-0.0632,1.0386,0.0779,0.4003,-0.0163,-0.5308,0.1483,0.2274,-0.5607,1004.6530,342.6129,-85.8599,0.4106,49.26680989,-122.90574267,0.00000000,
6.037892,-0.0632,1.0386,0.0779,0.4003,-0.0163,-0.5308,0.1483,0.2274,-0.5607,1004.6528,342.6129,-85.8599,0.4106,49.26680989,-122.90574267,0.00000000,
6.042564,-0.0632,1.0386,0.0779,0.4003,-0.0163,-0.5308,0.1483,0.2274,-0.5607,1004.6528,343.9178,-86.4895,-1.4559,49.26680989,-122.90574267,0.00000000,
6.072139,-0.1043,0.9922,0.0678,0.4003,-0.0163,-0.5308,0.1483,0.2274,-0.5607,1004.6528,343.9178,-86.4895,-1.4559,49.26680989,-122.90574267,0.00000000,
6.073768,-0.0114,0.9949,-0.0071,0.4003,-0.0163,-0.5308,0.1483,0.2274,-0.5607,1004.6528,343.9178,-86.4895,-1.4559,49.26680989,-122.90574267,0.00000000,
6.074825,-0.0040,1.0106,-0.0504,0.4003,-0.0163,-0.5308,0.1483,0.2274,-0.5607,1004.6528,343.9178,-86.4895,-1.4559,49.26680989,-122.90574267,0.00000000,
6.077797,-0.0040,1.0106,-0.0504,0.4003,-0.0163,-0.5308,0.1483,0.2274,-0.5607,1004.6513,343.9178,-86.4895,-1.4559,49.26680989,-122.90574267,0.00000000,
6.090307,-0.0040,1.0106,-0.0504,0.4003,-0.0163,-0.5308,0.0580,0.0927,-0.5452,1004.6513,343.9178,-86.4895,-1.4559,49.26680989,-122.90574267,0.00000000,
6.099986,-0.0040,1.0106,-0.0504,0.4003,-0.0163,-0.5308,0.0580,0.0927,-0.5452,1004.6513,346.2891,-85.4584,-3.3833,49.26680989,-122.90574267,0.00000000,
6.102150,-0.0040,1.0106,-0.0504,0.1626,0.1848,0.0210,0.0580,0.0927,-0.5452,1004.6513,346.2891,-85.4584,-3.3833,49.26680989,-122.90574267,0.00000000,
6.118168,-0.0040,1.0106,-0.0504,0.1626,0.1848,0.0210,0.0580,0.0927,-0.5452,1004.6401,346.2891,-85.4584,-3.3833,49.26680989,-122.90574267,0.00000000,
6.138977,-0.1301,1.0039,0.0048,0.1626,0.1848,0.0210,0.0580,0.0927,-0.5452,1004.6401,346.2891,-85.4584,-3.3833,49.26680989,-122.90574267,0.00000000,
6.140591,-0.1916,0.9884,0.0372,0.1626,0.1848,0.0210,0.0580,0.0927,-0.5452,1004.6401,346.2891,-85.4584,-3.3833,49.26680989,-122.90574267,0.00000000,
6.141594,-0.0834,0.9940,0.0174,0.1626,0.1848,0.0210,0.0580,0.0927,-0.5452,1004.6401,346.2891,-85.4584,-3.3833,49.26680989,-122.90574267,0.00000000,
6.142184,-0.0534,1.0131,0.0127,0.1626,0.1848,0.0210,0.0580,0.0927,-0.5452,1004.6401,346.2891,-85.4584,-3.3833,49.26680989,-122.90574267,0.00000000,
6.156080,-0.0534,1.0131,0.0127,0.1626,0.1848,0.0210,-0.0258,0.0384,-0.4614,1004.6401,346.2891,-85.4584,-3.3833,49.26680989,-122.90574267,0.00000000,
6.157801,-0.0534,1.0131,0.0127,0.1626,0.1848,0.0210,-0.0258,0.0384,-0.4614,1004.6435,346.2891,-85.4584,-3.3833,49.26680989,-122.90574267,0.00000000,
6.164592,-0.0977,1.0169,0.0085,0.1626,0.1848,0.0210,-0.0258,0.0384,-0.4614,1004.6435,346.2891,-85.4584,-3.3833,49.26680989,-122.90574267,0.00000000,
6.165752,-0.0977,1.0169,0.0085,-0.1003,0.0279,-0.5154,-0.0258,0.0384,-0.4614,1004.6435,346.2891,-85.4584,-3.3833,49.26680989,-122.90574267,0.00000000,
6.166902,-0.0977,1.0169,0.0085,-0.1003,0.0279,-0.5154,-0.0258,0.0384,-0.4614,1004.6435,349.7317,-84.1044,-5.2011,49.26680989,-122.90574267,0.00000000,
6.198281,-0.0977,1.0169,0.0085,-0.1003,0.0279,-0.5154,-0.0258,0.0384,-0.4614,1004.6398,349.7317,-84.1044,-5.2011,49.26680989,-122.90574267,0.00000000,
6.206116,-0.1161,1.0087,0.0065,-0.1003,0.0279,-0.5154,-0.0258,0.0384,-0.4614,1004.6398,349.7317,-84.1044,-5.2011,49.26680989,-122.90574267,0.00000000,
6.208097,-0.0622,1.0137,-0.0142,-0.1003,0.0279,-0.5154,-0.0258,0.0384,-0.4614,1004.6398,349.7317,-84.1044,-5.2011,49.26680989,-122.90574267,0.00000000,
6.222672,-0.0622,1.0137,-0.0142,-0.1003,0.0279,-0.5154,-0.1109,0.0759,-0.4769,1004.6398,349.7317,-84.1044,-5.2011,49.26680989,-122.90574267,0.00000000,
6.232067,-0.0622,1.0137,-0.0142,0.3372,0.1508,-0.3952,-0.1109,0.0759,-0.4769,1004.6398,349.7317,-84.1044,-5.2011,49.26680989,-122.90574267,0.00000000,
6.234077,-0.1073,1.0182,-0.0300,0.3372,0.1508,-0.3952,-0.1109,0.0759,-0.4769,1004.6398,349.7317,-84.1044,-5.2011,49.26680989,-122.90574267,0.00000000,
6.235351,-0.1624,1.0177,-0.0499,0.3372,0.1508,-0.3952,-0.1109,0.0759,-0.4769,1004.6398,349.7317,-84.1044,-5.2011,49.26680989,-122.90574267,0.00000000,
6.237831,-0.1624,1.0177,-0.0499,0.3372,0.1508,-0.3952,-0.1109,0.0759,-0.4769,1004.6411,349.7317,-84.1044,-5.2011,49.26680989,-122.90574267,0.00000000,
6.278465,-0.1624,1.0177,-0.0499,0.3372,0.1508,-0.3952,-0.1109,0.0759,-0.4769,1004.6523,349.7317,-84.1044,-5.2011,49.26680989,-122.90574267,0.00000000,
6.280278,-0.1624,1.0177,-0.0499,0.3372,0.1508,-0.3952,-0.1109,0.0759,-0.4769,1004.6523,351.7328,-82.6309,-6.7643,49.26680989,-122.90574267,0.00000000,
6.287943,-0.1624,1.0177,-0.0499,0.3372,0.1508,-0.3952,-0.2038,0.1019,-0.4301,1004.6523,351.7328,-82.6309,-6.7643,49.26680989,-122.90574267,0.00000000,
6.297883,-0.1624,1.0177,-0.0499,0.3004,0.2175,-0.8131,-0.2038,0.1019,-0.4301,1004.6523,351.7328,-82.6309,-6.7643,49.26680989,-122.90574267,0.00000000,
6.298856,-0.1330,1.0034,-0.0376,0.3004,0.2175,-0.8131,-0.2038,0.1019,-0.4301,1004.6523,351.7328,-82.6309,-6.7643,49.26680989,-122.90574267,0.00000000,
6.299963,-0.2304,1.0234,0.0834,0.3004,0.2175,-0.8131,-0.2038,0.1019,-0.4301,1004.6523,351.7328,-82.6309,-6.7643,49.26680989,-122.90574267,0.00000000,
6.300999,-0.1610,1.0022,0.1063,0.3004,0.2175,-0.8131,-0.2038,0.1019,-0.4301,1004.6523,351.7328,-82.6309,-6.7643,49.26680989,-122.90574267,0.00000000,
6.307690,-0.0408,1.0004,0.1422,0.3004,0.2175,-0.8131,-0.2038,0.1019,-0.4301,1004.6523,351.7328,-82.6309,-6.7643,49.26680989,-122.90574267,0.00000000,
6.317642,-0.0408,1.0004,0.1422,0.3004,0.2175,-0.8131,-0.2038,0.1019,-0.4301,1004.6913,351.7328,-82.6309,-6.7643,49.26680989,-122.90574267,0.00000000,
6.327295,0.1262,1.0041,0.1165,0.3004,0.2175,-0.8131,-0.2038,0.1019,-0.4301,1004.6913,351.7328,-82.6309,-6.7643,49.26680989,-122.90574267,0.00000000,
6.344756,0.1262,1.0041,0.1165,0.3004,0.2175,-0.8131,-0.2038,0.1019,-0.4301,1004.6913,353.7525,-81.2594,-8.1888,49.26680989,-122.90574267,0.00000000,
6.354141,0.1262,1.0041,0.1165,0.3004,0.2175,-0.8131,-0.2918,0.1134,-0.8143,1004.6913,353.7525,-81.2594,-8.1888,49.26680989,-122.90574267,0.00000000,
6.357619,0.1262,1.0041,0.1165,0.3004,0.2175,-0.8131,-0.2918,0.1134,-0.8143,1004.7392,353.7525,-81.2594,-8.1888,49.26680989,-122.90574267,0.00000000,
6.363434,0.1262,1.0041,0.1165,0.4390,0.2297,0.0179,-0.2918,0.1134,-0.8143,1004.7392,353.7525,-81.2594,-8.1888,49.26680989,-122.90574267,0.00000000,
6.373605,0.0347,1.0670,0.0106,0.4390,0.2297,0.0179,-0.2918,0.1134,-0.8143,1004.7392,353.7525,-81.2594,-8.1888,49.26680989,-122.90574267,0.00000000,
6.375489,-0.0347,1.1263,-0.0296,0.4390,0.2297,0.0179,-0.2918,0.1134,-0.8143,1004.7392,353.7525,-81.2594,-8.1888,49.26680989,-122.90574267,0.00000000,
6.398506,-0.0347,1.1263,-0.0296,0.4390,0.2297,0.0179,-0.2918,0.1134,-0.8143,1004.8032,353.7525,-81.2594,-8.1888,49.26680989,-122.90574267,0.00000000,
6.402233,-0.0347,1.1263,-0.0296,0.4390,0.2297,0.0179,-0.2918,0.1134,-0.8143,1004.8032,357.2676,-77.9205,-11.3462,49.26680989,-122.90574267,0.00000000,
6.420252,-0.0347,1.1263,-0.0296,0.4390,0.2297,0.0179,-0.5356,0.2013,-1.4044,1004.8032,357.2676,-77.9205,-11.3462,49.26680989,-122.90574267,0.00000000,
6.429791,-0.0347,1.1263,-0.0296,2.8490,0.9614,-0.5811,-0.5356,0.2013,-1.4044,1004.8032,357.2676,-77.9205,-11.3462,49.26680989,-122.90574267,0.00000000,
6.437822,-0.0347,1.1263,-0.0296,2.8490,0.9614,-0.5811,-0.5356,0.2013,-1.4044,1004.8664,357.2676,-77.9205,-11.3462,49.26680989,-122.90574267,0.00000000,
6.439290,-0.0501,1.1358,0.0349,2.8490,0.9614,-0.5811,-0.5356,0.2013,-1.4044,1004.8664,357.2676,-77.9205,-11.3462,49.26680989,-122.90574267,0.00000000,
6.439717,0.0250,1.1694,0.0683,2.8490,0.9614,-0.5811,-0.5356,0.2013,-1.4044,1004.8664,357.2676,-77.9205,-11.3462,49.26680989,-122.90574267,0.00000000,
6.440102,0.0750,1.2620,0.0313,2.8490,0.9614,-0.5811,-0.5356,0.2013,-1.4044,1004.8664,357.2676,-77.9205,-11.3462,49.26680989,-122.90574267,0.00000000,
6.440480,0.1305,1.3640,-0.0077,2.8490,0.9614,-0.5811,-0.5356,0.2013,-1.4044,1004.8664,357.2676,-77.9205,-11.3462,49.26680989,-122.90574267,0.00000000,
6.458997,0.1305,1.3640,-0.0077,2.8490,0.9614,-0.5811,-0.5356,0.2013,-1.4044,1004.8664,357.5871,-74.0575,-14.9088,49.26680989,-122.90574267,0.00000000,
6.468580,0.2119,1.3706,-0.0118,2.8490,0.9614,-0.5811,-0.5356,0.2013,-1.4044,1004.8664,357.5871,-74.0575,-14.9088,49.26680989,-122.90574267,0.00000000,
6.477595,0.2119,1.3706,-0.0118,2.8490,0.9614,-0.5811,-0.5356,0.2013,-1.4044,1004.9147,357.5871,-74.0575,-14.9088,49.26680989,-122.90574267,0.00000000,
6.485733,0.3681,1.3955,-0.0611,2.8490,0.9614,-0.5811,-0.5356,0.2013,-1.4044,1004.9147,357.5871,-74.0575,-14.9088,49.26680989,-122.90574267,0.00000000,
6.487521,0.3681,1.3955,-0.0611,2.8490,0.9614,-0.5811,-1.0234,0.1179,-2.1122,1004.9147,357.5871,-74.0575,-14.9088,49.26680989,-122.90574267,0.00000000,
6.495881,0.3681,1.3955,-0.0611,3.8789,2.7763,-1.1277,-1.0234,0.1179,-2.1122,1004.9147,357.5871,-74.0575,-14.9088,49.26680989,-122.90574267,0.00000000,
6.517978,0.3681,1.3955,-0.0611,3.8789,2.7763,-1.1277,-1.0234,0.1179,-2.1122,1004.8967,357.5871,-74.0575,-14.9088,49.26680989,-122.90574267,0.00000000,
6.523323,0.3681,1.3955,-0.0611,3.8789,2.7763,-1.1277,-1.0234,0.1179,-2.1122,1004.8967,358.8929,-68.0860,-20.2715,49.26680989,-122.90574267,0.00000000,
6.536009,0.7578,1.6123,-0.2010,3.8789,2.7763,-1.1277,-1.0234,0.1179,-2.1122,1004.8967,358.8929,-68.0860,-20.2715,49.26680989,-122.90574267,0.00000000,
6.538087,0.9491,1.6829,-0.3164,3.8789,2.7763,-1.1277,-1.0234,0.1179,-2.1122,1004.8967,358.8929,-68.0860,-20.2715,49.26680989,-122.90574267,0.00000000,
6.539636,0.4241,1.6399,-0.2252,3.8789,2.7763,-1.1277,-1.0234,0.1179,-2.1122,1004.8967,358.8929,-68.0860,-20.2715,49.26680989,-122.90574267,0.00000000,
6.553220,0.4241,1.6399,-0.2252,3.8789,2.7763,-1.1277,-1.1436,0.9003,-3.2285,1004.8967,358.8929,-68.0860,-20.2715,49.26680989,-122.90574267,0.00000000,
6.558236,0.4241,1.6399,-0.2252,3.8789,2.7763,-1.1277,-1.1436,0.9003,-3.2285,1004.8166,358.8929,-68.0860,-20.2715,49.26680989,-122.90574267,0.00000000,
6.561663,0.4241,1.6399,-0.2252,8.8807,5.5232,-2.4657,-1.1436,0.9003,-3.2285,1004.8166,358.8929,-68.0860,-20.2715,49.26680989,-122.90574267,0.00000000,
