time,gFx,gFy,gFz,ax,ay,az,wx,wy,wz,Latitude,Longitude,Speed (m/s)
0.131349,0,0,0,0,0,0,0,0,0,0,0,0
0.132529,0.119,0.7195,0.65,0,0,0,0,0,0,49.2738856,-122.9807201,0
0.175258,0.119,0.7195,0.65,0,0,0,0,0,0,49.2738856,-122.9807201,0
0.176888,0.107,0.7152,0.6521,0,0,0,0,0,0,49.2738856,-122.9807201,0
0.178221,0.1005,0.7151,0.6513,0,0,0,0,0,0,49.2738856,-122.9807201,0
0.191501,0.1068,0.7205,0.652,0,0,0,0,0,0,49.2738856,-122.9807201,0
0.196644,0.1158,0.7273,0.6513,0,0,0,0,0,0,49.2738856,-122.9807201,0
0.199861,0.1158,0.7273,0.6513,0,0,0,0,0,0,49.2738856,-122.9807201,0
0.242358,0.1156,0.726,0.6485,0,0,0,0,0,0,49.2738856,-122.9807201,0
0.243854,0.1152,0.7168,0.6489,0,0,0,0,0,0,49.2738856,-122.9807201,0
0.245319,0.1152,0.7168,0.6489,0,0,0,0.0015,-0.0144,-0.0101,49.2738856,-122.9807201,0
0.248041,0.1152,0.7168,0.6489,0,0,0,0.0015,-0.0144,-0.0101,49.2738856,-122.9807201,0
0.263929,0.1113,0.7173,0.65,0,0,0,0.0015,-0.0144,-0.0101,49.2738856,-122.9807201,0
0.27602,0.1113,0.7173,0.65,0,0,0,0.0015,-0.0144,-0.0101,49.2738856,-122.9807201,0
0.277818,0.1094,0.7179,0.6434,0,0,0,0.0015,-0.0144,-0.0101,49.2738856,-122.9807201,0
0.294786,0.1046,0.7158,0.6421,0,0,0,0.0015,-0.0144,-0.0101,49.2738856,-122.9807201,0
0.29667,0.1046,0.7158,0.6421,0,0,0,0.0015,-0.0144,-0.0101,49.2738856,-122.9807201,0
0.310429,0.1046,0.7158,0.6421,0,0,0,0.0046,0.0011,-0.018,49.2738856,-122.9807201,0
0.312733,0.1016,0.7169,0.6465,0,0,0,0.0046,0.0011,-0.018,49.2738856,-122.9807201,0
0.31489,0.1016,0.7169,0.6465,0.0452,0.0232,-0.007,0.0046,0.0011,-0.018,49.2738856,-122.9807201,0
0.338597,0.1016,0.7169,0.6465,0.0452,0.0232,-0.007,0.0046,0.0011,-0.018,49.2738856,-122.9807201,0
0.340773,0.1065,0.7225,0.6526,0.0452,0.0232,-0.007,0.0046,0.0011,-0.018,49.2738856,-122.9807201,0
0.361793,0.1065,0.7225,0.6526,0.0452,0.0232,-0.007,0.0046,0.0011,-0.018,49.2738856,-122.9807201,0
0.365847,0.1099,0.7217,0.6512,0.0452,0.0232,-0.007,0.0046,0.0011,-0.018,49.2738856,-122.9807201,0
0.378833,0.1099,0.7217,0.6512,0.0452,0.0232,-0.007,0.005,-0.0017,-0.013,49.2738856,-122.9807201,0
0.382689,0.0985,0.7158,0.6413,0.0452,0.0232,-0.007,0.005,-0.0017,-0.013,49.2738856,-122.9807201,0
0.385533,0.0985,0.7158,0.6413,-0.0264,-0.0211,-0.0376,0.005,-0.0017,-0.013,49.2738856,-122.9807201,0
0.389827,0.0925,0.7133,0.6371,-0.0264,-0.0211,-0.0376,0.005,-0.0017,-0.013,49.2738856,-122.9807201,0
0.400591,0.0925,0.7133,0.6371,-0.0264,-0.0211,-0.0376,0.005,-0.0017,-0.013,49.2738856,-122.9807201,0
0.446071,0.0933,0.6921,0.6358,-0.0264,-0.0211,-0.0376,0.005,-0.0017,-0.013,49.2738856,-122.9807201,0
0.452858,0.0778,0.6887,0.6218,-0.0264,-0.0211,-0.0376,0.005,-0.0017,-0.013,49.2738856,-122.9807201,0
0.459456,0.0778,0.6887,0.6218,-0.0264,-0.0211,-0.0376,-0.0162,0.0144,0.0177,49.2738856,-122.9807201,0
0.463158,0.1116,0.7152,0.6104,-0.0264,-0.0211,-0.0376,-0.0162,0.0144,0.0177,49.2738856,-122.9807201,0
0.467415,0.1116,0.7152,0.6104,-0.0423,0.0063,-0.0186,-0.0162,0.0144,0.0177,49.2738856,-122.9807201,0
0.48023,0.1116,0.7152,0.6104,-0.0423,0.0063,-0.0186,-0.0162,0.0144,0.0177,49.2738856,-122.9807201,0
0.482926,0.1345,0.721,0.6368,-0.0423,0.0063,-0.0186,-0.0162,0.0144,0.0177,49.2738856,-122.9807201,0
0.495806,0.1119,0.7423,0.6544,-0.0423,0.0063,-0.0186,-0.0162,0.0144,0.0177,49.2738856,-122.9807201,0
0.499237,0.1119,0.7423,0.6544,-0.0423,0.0063,-0.0186,-0.0162,0.0144,0.0177,49.2738856,-122.9807201,0
0.512805,0.1119,0.7423,0.6544,-0.0423,0.0063,-0.0186,-0.053,0.1245,0.0276,49.2738856,-122.9807201,0
0.517082,0.1119,0.7423,0.6544,-0.0714,-0.1215,-0.2152,-0.053,0.1245,0.0276,49.2738856,-122.9807201,0
0.519536,0.1083,0.7514,0.6734,-0.0714,-0.1215,-0.2152,-0.053,0.1245,0.0276,49.2738856,-122.9807201,0
0.52349,0.1202,0.7428,0.6903,-0.0714,-0.1215,-0.2152,-0.053,0.1245,0.0276,49.2738856,-122.9807201,0
0.537158,0.1202,0.7428,0.6903,-0.0714,-0.1215,-0.2152,-0.053,0.1245,0.0276,49.2738856,-122.9807201,0
0.564979,0.1202,0.7428,0.6903,-0.0714,-0.1215,-0.2152,-0.053,0.1245,0.0276,49.2738856,-122.9807201,0
0.56735,0.1016,0.7218,0.6687,-0.0714,-0.1215,-0.2152,-0.053,0.1245,0.0276,49.2738856,-122.9807201,0
0.569375,0.1038,0.7172,0.6268,-0.0714,-0.1215,-0.2152,-0.053,0.1245,0.0276,49.2738856,-122.9807201,0
0.581372,0.1317,0.7239,0.6311,-0.0714,-0.1215,-0.2152,-0.053,0.1245,0.0276,49.2738856,-122.9807201,0
0.583666,0.1317,0.7239,0.6311,0.1847,0.2098,0.1085,-0.053,0.1245,0.0276,49.2738856,-122.9807201,0
0.585566,0.1317,0.7239,0.6311,0.1847,0.2098,0.1085,0.0197,0.0954,-0.0261,49.2738856,-122.9807201,0
0.596793,0.1317,0.7239,0.6311,0.1847,0.2098,0.1085,0.0197,0.0954,-0.0261,49.2738856,-122.9807201,0
0.648781,0.1317,0.7239,0.6311,0.1847,0.2098,0.1085,0.0877,0.1071,-0.0764,49.2738856,-122.9807201,0
0.654176,0.1301,0.7206,0.6832,0.1847,0.2098,0.1085,0.0877,0.1071,-0.0764,49.2738856,-122.9807201,0
0.659072,0.0776,0.7046,0.7261,0.1847,0.2098,0.1085,0.0877,0.1071,-0.0764,49.2738856,-122.9807201,0
0.663576,0.0232,0.7195,0.7446,0.1847,0.2098,0.1085,0.0877,0.1071,-0.0764,49.2738856,-122.9807201,0
0.668418,0.0232,0.7195,0.7446,0.1856,0.0053,0.0369,0.0877,0.1071,-0.0764,49.2738856,-122.9807201,0
0.678135,0.0402,0.6834,0.7113,0.1856,0.0053,0.0369,0.0877,0.1071,-0.0764,49.2738856,-122.9807201,0
0.681917,0.0999,0.6998,0.6379,0.1856,0.0053,0.0369,0.0877,0.1071,-0.0764,49.2738856,-122.9807201,0
0.684926,0.0999,0.6998,0.6379,0.1856,0.0053,0.0369,0.0877,0.1071,-0.0764,49.2738856,-122.9807201,0
0.695146,0.0999,0.6998,0.6379,0.1856,0.0053,0.0369,0.0877,0.1071,-0.0764,49.2738856,-122.9807201,0
0.717541,0.0999,0.6998,0.6379,0.1856,0.0053,0.0369,0.1309,-0.0565,-0.0553,49.2738856,-122.9807201,0
0.721066,0.0999,0.6998,0.6379,-0.2028,-0.1429,0.6917,0.1309,-0.0565,-0.0553,49.2738856,-122.9807201,0
0.723544,0.1631,0.733,0.6059,-0.2028,-0.1429,0.6917,0.1309,-0.0565,-0.0553,49.2738856,-122.9807201,0
0.725927,0.2009,0.7293,0.6352,-0.2028,-0.1429,0.6917,0.1309,-0.0565,-0.0553,49.2738856,-122.9807201,0
0.737828,0.2009,0.7293,0.6352,-0.2028,-0.1429,0.6917,0.1309,-0.0565,-0.0553,49.2738856,-122.9807201,0
0.739643,0.2027,0.7437,0.6582,-0.2028,-0.1429,0.6917,0.1309,-0.0565,-0.0553,49.2738856,-122.9807201,0
0.76147,0.216,0.7471,0.6945,-0.2028,-0.1429,0.6917,0.1309,-0.0565,-0.0553,49.2738856,-122.9807201,0
0.765172,0.216,0.7471,0.6945,-0.2028,-0.1429,0.6917,0.1309,-0.0565,-0.0553,49.2738856,-122.9807201,0
0.783586,0.216,0.7471,0.6945,-0.2028,-0.1429,0.6917,0.1726,0.1707,-0.3033,49.2738856,-122.9807201,0
0.787104,0.1844,0.7595,0.7037,-0.2028,-0.1429,0.6917,0.1726,0.1707,-0.3033,49.2738856,-122.9807201,0
0.790189,0.1844,0.7595,0.7037,0.6153,-0.193,-0.0459,0.1726,0.1707,-0.3033,49.2738856,-122.9807201,0
0.801199,0.1844,0.7595,0.7037,0.6153,-0.193,-0.0459,0.1726,0.1707,-0.3033,49.2738856,-122.9807201,0
0.803855,0.1556,0.7666,0.6923,0.6153,-0.193,-0.0459,0.1726,0.1707,-0.3033,49.2738856,-122.9807201,0
0.817277,0.1582,0.7719,0.7024,0.6153,-0.193,-0.0459,0.1726,0.1707,-0.3033,49.2738856,-122.9807201,0
0.851822,0.1015,0.782,0.7136,0.6153,-0.193,-0.0459,0.1726,0.1707,-0.3033,49.2738856,-122.9807201,0
0.854195,0.1015,0.782,0.7136,1.3523,0.0084,0.5615,0.1726,0.1707,-0.3033,49.2738856,-122.9807201,0
0.856245,0.1015,0.782,0.7136,1.3523,0.0084,0.5615,0.3636,0.1133,-0.611,49.2738856,-122.9807201,0
0.858513,0.05,0.7917,0.7124,1.3523,0.0084,0.5615,0.3636,0.1133,-0.611,49.2738856,-122.9807201,0
0.876738,0.05,0.7917,0.7124,1.3523,0.0084,0.5615,0.3636,0.1133,-0.611,49.2738856,-122.9807201,0
0.879312,0.0266,0.8318,0.7764,1.3523,0.0084,0.5615,0.3636,0.1133,-0.611,49.2738856,-122.9807201,0
0.896533,-0.001,0.9091,0.8486,1.3523,0.0084,0.5615,0.3636,0.1133,-0.611,49.2738856,-122.9807201,0
0.900412,-0.001,0.9091,0.8486,1.3523,0.0084,0.5615,0.3636,0.1133,-0.611,49.2738856,-122.9807201,0
0.919496,-0.001,0.9091,0.8486,1.3523,0.0084,0.5615,0.6272,-0.3699,-0.6925,49.2738856,-122.9807201,0
0.923169,-0.001,0.9091,0.8486,0.6685,0.0022,0.9913,0.6272,-0.3699,-0.6925,49.2738856,-122.9807201,0
0.92586,0.0566,0.9781,0.9047,0.6685,0.0022,0.9913,0.6272,-0.3699,-0.6925,49.2738856,-122.9807201,0
0.937054,0.0566,0.9781,0.9047,0.6685,0.0022,0.9913,0.6272,-0.3699,-0.6925,49.2738856,-122.9807201,0
0.940324,0.0854,0.9351,0.8199,0.6685,0.0022,0.9913,0.6272,-0.3699,-0.6925,49.2738856,-122.9807201,0
0.961592,-0.0255,0.897,0.6255,0.6685,0.0022,0.9913,0.6272,-0.3699,-0.6925,49.2738856,-122.9807201,0
0.964916,-0.0255,0.897,0.6255,0.6685,0.0022,0.9913,0.6272,-0.3699,-0.6925,49.2738856,-122.9807201,0
0.987166,-0.0255,0.897,0.6255,0.6685,0.0022,0.9913,0.9163,-1.4355,-0.3688,49.2738856,-122.9807201,0
0.990478,-0.005,0.8784,0.3515,0.6685,0.0022,0.9913,0.9163,-1.4355,-0.3688,49.2738856,-122.9807201,0
0.993202,-0.005,0.8784,0.3515,-0.3732,0.8534,2.6574,0.9163,-1.4355,-0.3688,49.2738856,-122.9807201,0
0.995736,0.0525,0.9784,0.1109,-0.3732,0.8534,2.6574,0.9163,-1.4355,-0.3688,49.2738856,-122.9807201,0
0.998323,0.0525,0.9784,0.1109,-0.3732,0.8534,2.6574,0.9163,-1.4355,-0.3688,49.2738856,-122.9807201,0
1.055457,0.0525,0.9784,0.1109,-0.3732,0.8534,2.6574,0.8973,-3.2045,0.263,49.2738856,-122.9807201,0
1.058603,0.0525,0.9784,0.1109,-1.715,0.5817,-0.6535,0.8973,-3.2045,0.263,49.2738856,-122.9807201,0
1.060748,0.0887,1.2279,0.2552,-1.715,0.5817,-0.6535,0.8973,-3.2045,0.263,49.2738856,-122.9807201,0
1.062798,0.4274,1.1215,0.1443,-1.715,0.5817,-0.6535,0.8973,-3.2045,0.263,49.2738856,-122.9807201,0
1.064829,0.8301,0.9884,0.3843,-1.715,0.5817,-0.6535,0.8973,-3.2045,0.263,49.2738856,-122.9807201,0
1.08364,0.8525,0.9441,0.3716,-1.715,0.5817,-0.6535,0.8973,-3.2045,0.263,49.2738856,-122.9807201,0
1.088281,0.8525,0.9441,0.3716,-1.715,0.5817,-0.6535,0.8973,-3.2045,0.263,49.2738856,-122.9807201,0
1.097054,0.5515,0.9927,0.3074,-1.715,0.5817,-0.6535,0.8973,-3.2045,0.263,49.2738856,-122.9807201,0
1.099996,0.5515,0.9927,0.3074,-1.715,0.5817,-0.6535,0.8973,-3.2045,0.263,49.2738856,-122.9807201,0
1.122596,0.5515,0.9927,0.3074,-1.715,0.5817,-0.6535,0.5844,-0.0661,0.029,49.2738856,-122.9807201,0
1.126058,0.3073,0.8446,0.1689,-1.715,0.5817,-0.6535,0.5844,-0.0661,0.029,49.2738856,-122.9807201,0
1.128831,0.3073,0.8446,0.1689,2.8759,1.8885,-1.5961,0.5844,-0.0661,0.029,49.2738856,-122.9807201,0
1.131604,0.287,0.7466,0.1249,2.8759,1.8885,-1.5961,0.5844,-0.0661,0.029,49.2738856,-122.9807201,0
1.138268,0.287,0.7466,0.1249,2.8759,1.8885,-1.5961,0.5844,-0.0661,0.029,49.2738856,-122.9807201,0
1.190948,0.3043,0.6798,0.0757,2.8759,1.8885,-1.5961,0.5844,-0.0661,0.029,49.2738856,-122.9807201,0
1.193488,0.1998,0.51,-0.0305,2.8759,1.8885,-1.5961,0.5844,-0.0661,0.029,49.2738856,-122.9807201,0
1.195479,0.1068,0.3936,-0.0628,2.8759,1.8885,-1.5961,0.5844,-0.0661,0.029,49.2738856,-122.9807201,0
1.19769,0.1068,0.3936,-0.0628,2.8759,1.8885,-1.5961,0.6141,0.5238,0.7678,49.2738856,-122.9807201,0
1.199455,0.1068,0.3936,-0.0628,1.7637,-0.1967,-1.7118,0.6141,0.5238,0.7678,49.2738856,-122.9807201,0
1.201087,0.1068,0.3936,-0.0628,1.7637,-0.1967,-1.7118,0.6141,0.5238,0.7678,49.2738856,-122.9807201,0
1.229469,0.1068,0.3936,-0.0628,1.7637,-0.1967,-1.7118,0.6141,0.5238,0.7678,49.2738856,-122.9807201,0
1.233382,0.0944,0.3241,-0.0121,1.7637,-0.1967,-1.7118,0.6141,0.5238,0.7678,49.2738856,-122.9807201,0
1.236672,0.1518,0.2569,0.0444,1.7637,-0.1967,-1.7118,0.6141,0.5238,0.7678,49.2738856,-122.9807201,0
1.259198,0.1518,0.2569,0.0444,-1.4896,-3.6454,-3.0884,0.6141,0.5238,0.7678,49.2738856,-122.9807201,0
1.263054,0.1518,0.2569,0.0444,-1.4896,-3.6454,-3.0884,1.2318,0.0675,1.4262,49.2738856,-122.9807201,0
1.265874,0.1003,0.1998,-0.02,-1.4896,-3.6454,-3.0884,1.2318,0.0675,1.4262,49.2738856,-122.9807201,0
1.268606,0.0107,0.296,-0.1127,-1.4896,-3.6454,-3.0884,1.2318,0.0675,1.4262,49.2738856,-122.9807201,0
1.281774,0.0107,0.296,-0.1127,-1.4896,-3.6454,-3.0884,1.2318,0.0675,1.4262,49.2738856,-122.9807201,0
1.28437,-0.0472,0.4659,-0.1899,-1.4896,-3.6454,-3.0884,1.2318,0.0675,1.4262,49.2738856,-122.9807201,0
1.296106,-0.0472,0.4659,-0.1899,-1.4896,-3.6454,-3.0884,1.2318,0.0675,1.4262,49.2738856,-122.9807201,0
1.31419,-0.0629,0.4803,-0.1503,-1.4896,-3.6454,-3.0884,1.2318,0.0675,1.4262,49.2738856,-122.9807201,0
1.317797,-0.0745,0.398,-0.0784,-1.4896,-3.6454,-3.0884,1.2318,0.0675,1.4262,49.2738856,-122.9807201,0
1.324587,-0.0745,0.398,-0.0784,-1.4896,-3.6454,-3.0884,1.9845,0.0785,1.0766,49.2738856,-122.9807201,0
1.327036,-0.0745,0.398,-0.0784,-2.859,-5.7125,-1.9497,1.9845,0.0785,1.0766,49.2738856,-122.9807201,0
1.337184,-0.0745,0.398,-0.0784,-2.859,-5.7125,-1.9497,1.9845,0.0785,1.0766,49.2738856,-122.9807201,0
1.339864,-0.0437,0.4282,-0.0756,-2.859,-5.7125,-1.9497,1.9845,0.0785,1.0766,49.2738856,-122.9807201,0
1.390373,-0.0248,0.5374,-0.1161,-2.859,-5.7125,-1.9497,1.9845,0.0785,1.0766,49.2738856,-122.9807201,0
1.395466,-0.0321,0.5911,-0.1316,-2.859,-5.7125,-1.9497,1.9845,0.0785,1.0766,49.2738856,-122.9807201,0
1.399028,-0.0321,0.5911,-0.1316,-2.859,-5.7125,-1.9497,2.2319,0.0806,0.1611,49.2738856,-122.9807201,0
1.401604,-0.0367,0.6121,-0.1107,-2.859,-5.7125,-1.9497,2.2319,0.0806,0.1611,49.2738856,-122.9807201,0
1.403822,-0.0367,0.6121,-0.1107,-4.1755,-3.8235,-1.6617,2.2319,0.0806,0.1611,49.2738856,-122.9807201,0
1.406118,-0.0367,0.6121,-0.1107,-4.1755,-3.8235,-1.6617,2.2319,0.0806,0.1611,49.2738856,-122.9807201,0
1.429114,-0.0367,0.6121,-0.1107,-4.1755,-3.8235,-1.6617,2.2319,0.0806,0.1611,49.2738856,-122.9807201,0
1.432681,-0.0144,0.7363,-0.1348,-4.1755,-3.8235,-1.6617,2.2319,0.0806,0.1611,49.2738856,-122.9807201,0
1.457726,0.0421,0.9466,-0.1795,-4.1755,-3.8235,-1.6617,2.2319,0.0806,0.1611,49.2738856,-122.9807201,0
1.46073,0.1284,1.1199,-0.1677,-4.1755,-3.8235,-1.6617,2.2319,0.0806,0.1611,49.2738856,-122.9807201,0
1.462969,0.1284,1.1199,-0.1677,-4.1755,-3.8235,-1.6617,2.0469,-0.1014,-0.1726,49.2738856,-122.9807201,0
1.465633,0.1284,1.1199,-0.1677,-3.5979,-2.5288,-0.3357,2.0469,-0.1014,-0.1726,49.2738856,-122.9807201,0
1.483709,0.1284,1.1199,-0.1677,-3.5979,-2.5288,-0.3357,2.0469,-0.1014,-0.1726,49.2738856,-122.9807201,0
1.485453,0.1996,1.1371,-0.0739,-3.5979,-2.5288,-0.3357,2.0469,-0.1014,-0.1726,49.2738856,-122.9807201,0
1.497091,0.1996,1.1371,-0.0739,-3.5979,-2.5288,-0.3357,2.0469,-0.1014,-0.1726,49.2738856,-122.9807201,0
1.499479,0.3038,1.1396,-0.0165,-3.5979,-2.5288,-0.3357,2.0469,-0.1014,-0.1726,49.2738856,-122.9807201,0
1.523983,0.4603,1.2842,0.049,-3.5979,-2.5288,-0.3357,2.0469,-0.1014,-0.1726,49.2738856,-122.9807201,0
1.52906,0.4603,1.2842,0.049,-3.5979,-2.5288,-0.3357,1.0036,0.3705,-0.4363,49.2738856,-122.9807201,0
1.532671,0.4231,1.365,0.0953,-3.5979,-2.5288,-0.3357,1.0036,0.3705,-0.4363,49.2738856,-122.9807201,0
1.536158,0.4231,1.365,0.0953,-2.2558,1.3378,-0.2458,1.0036,0.3705,-0.4363,49.2738856,-122.9807201,0
1.53958,0.4231,1.365,0.0953,-2.2558,1.3378,-0.2458,1.0036,0.3705,-0.4363,49.2738856,-122.9807201,0
1.564379,0.4953,1.3707,0.1342,-2.2558,1.3378,-0.2458,1.0036,0.3705,-0.4363,49.2738856,-122.9807201,0
1.579692,0.597,1.3154,0.261,-2.2558,1.3378,-0.2458,1.0036,0.3705,-0.4363,49.2738856,-122.9807201,0
1.589963,0.6237,1.3479,0.253,-2.2558,1.3378,-0.2458,1.0036,0.3705,-0.4363,49.2738856,-122.9807201,0
1.596691,0.6237,1.3479,0.253,-2.2558,1.3378,-0.2458,0.1365,1.9266,-0.4568,49.2738856,-122.9807201,0
1.598286,0.6237,1.3479,0.253,0.7234,3.7831,1.2089,0.1365,1.9266,-0.4568,49.2738856,-122.9807201,0
1.599424,0.6237,1.3479,0.253,0.7234,3.7831,1.2089,0.1365,1.9266,-0.4568,49.2738856,-122.9807201,0
1.628652,0.6237,1.3479,0.253,0.7234,3.7831,1.2089,0.1365,1.9266,-0.4568,49.2738856,-122.9807201,0
1.63068,0.507,1.2474,0.2241,0.7234,3.7831,1.2089,0.1365,1.9266,-0.4568,49.2738856,-122.9807201,0
1.632562,0.332,1.1985,0.1563,0.7234,3.7831,1.2089,0.1365,1.9266,-0.4568,49.2738856,-122.9807201,0
1.657993,0.3144,1.5359,0.0477,0.7234,3.7831,1.2089,0.1365,1.9266,-0.4568,49.2738856,-122.9807201,0
1.663653,0.2156,1.4325,0.0862,0.7234,3.7831,1.2089,0.1365,1.9266,-0.4568,49.2738856,-122.9807201,0
1.666177,0.2156,1.4325,0.0862,2.6441,4.4385,2.592,0.1365,1.9266,-0.4568,49.2738856,-122.9807201,0
1.668427,0.2156,1.4325,0.0862,2.6441,4.4385,2.592,0.082,1.9729,-0.3274,49.2738856,-122.9807201,0
1.676998,0.2156,1.4325,0.0862,2.6441,4.4385,2.592,0.082,1.9729,-0.3274,49.2738856,-122.9807201,0
1.696376,0.0562,1.178,0.1012,2.6441,4.4385,2.592,0.082,1.9729,-0.3274,49.2738856,-122.9807201,0
1.700728,0.0562,1.178,0.1012,2.6441,4.4385,2.592,0.082,1.9729,-0.3274,49.2738856,-122.9807201,0
1.72431,0.0082,1.205,0.0425,2.6441,4.4385,2.592,0.082,1.9729,-0.3274,49.2738856,-122.9807201,0
1.730291,0.0875,1.2604,0.0134,2.6441,4.4385,2.592,0.082,1.9729,-0.3274,49.2738856,-122.9807201,0
1.734563,0.0875,1.2604,0.0134,2.6441,4.4385,2.592,0.1626,0.316,-0.4354,49.2738856,-122.9807201,0
1.73851,0.0875,1.2604,0.0134,0.3636,4.4116,1.5113,0.1626,0.316,-0.4354,49.2738856,-122.9807201,0
1.741226,0.0875,1.2604,0.0134,0.3636,4.4116,1.5113,0.1626,0.316,-0.4354,49.2738856,-122.9807201,0
1.791019,0.2576,1.2483,0.07,0.3636,4.4116,1.5113,0.1626,0.316,-0.4354,49.2738856,-122.9807201,0
1.796384,0.0736,0.9803,0.0363,0.3636,4.4116,1.5113,0.1626,0.316,-0.4354,49.2738856,-122.9807201,0
1.800398,-0.0045,1.0691,0.0186,0.3636,4.4116,1.5113,0.1626,0.316,-0.4354,49.2738856,-122.9807201,0
1.803715,-0.0045,1.0691,0.0186,0.3636,4.4116,1.5113,0.1626,0.316,-0.4354,49.2738856,-122.9807201,0
1.806929,-0.0045,1.0691,0.0186,0.3636,4.4116,1.5113,0.0284,-0.1468,-0.5644,49.2738856,-122.9807201,0
1.810536,1.0341,1.3273,0.4615,0.3636,4.4116,1.5113,0.0284,-0.1468,-0.5644,49.2738856,-122.9807201,0
1.814199,1.0341,1.3273,0.4615,-1.5282,2.8423,0.9263,0.0284,-0.1468,-0.5644,49.2738856,-122.9807201,0
1.835949,1.0341,1.3273,0.4615,-1.5282,2.8423,0.9263,0.0284,-0.1468,-0.5644,49.2738856,-122.9807201,0
1.839735,1.0677,1.1022,-0.1112,-1.5282,2.8423,0.9263,0.0284,-0.1468,-0.5644,49.2738856,-122.9807201,0
1.858005,-0.3407,1.5116,-0.694,-1.5282,2.8423,0.9263,0.0284,-0.1468,-0.5644,49.2738856,-122.9807201,0
1.862341,-0.5495,0.8634,-0.1007,-1.5282,2.8423,0.9263,0.0284,-0.1468,-0.5644,49.2738856,-122.9807201,0
1.870254,-0.5495,0.8634,-0.1007,-1.5282,2.8423,0.9263,0.3963,0.914,-0.5608,49.2738856,-122.9807201,0
1.873357,-0.5495,0.8634,-0.1007,1.4531,1.8415,2.0055,0.3963,0.914,-0.5608,49.2738856,-122.9807201,0
1.877739,-0.5495,0.8634,-0.1007,1.4531,1.8415,2.0055,0.3963,0.914,-0.5608,49.2738856,-122.9807201,0
1.879345,0.1462,0.8737,-0.1557,1.4531,1.8415,2.0055,0.3963,0.914,-0.5608,49.2738856,-122.9807201,0
1.896177,0.1462,0.8737,-0.1557,1.4531,1.8415,2.0055,0.3963,0.914,-0.5608,49.2738856,-122.9807201,0
1.924352,0.4554,1.0688,-0.0542,1.4531,1.8415,2.0055,0.3963,0.914,-0.5608,49.2738856,-122.9807201,0
1.926736,0.1539,0.8893,-0.0503,1.4531,1.8415,2.0055,0.3963,0.914,-0.5608,49.2738856,-122.9807201,0
1.934767,0.1539,0.8893,-0.0503,-1.1878,1.304,-1.9684,0.3963,0.914,-0.5608,49.2738856,-122.9807201,0
1.937187,0.0961,0.954,-0.2733,-1.1878,1.304,-1.9684,0.3963,0.914,-0.5608,49.2738856,-122.9807201,0
1.939329,0.0961,0.954,-0.2733,-1.1878,1.304,-1.9684,0.4025,-0.128,-0.5511,49.2738856,-122.9807201,0
1.941442,0.0961,0.954,-0.2733,-1.1878,1.304,-1.9684,0.4025,-0.128,-0.5511,49.2738856,-122.9807201,0
1.9908,0.1542,0.955,-0.345,-1.1878,1.304,-1.9684,0.4025,-0.128,-0.5511,49.2738856,-122.9807201,0
1.996161,0.1957,0.9656,-0.1626,-1.1878,1.304,-1.9684,0.4025,-0.128,-0.5511,49.2738856,-122.9807201,0
2.001585,0.1957,0.9656,-0.1626,-1.1878,1.304,-1.9684,0.4025,-0.128,-0.5511,49.2738856,-122.9807201,0
2.005518,0.3832,1.0061,-0.0819,-1.1878,1.304,-1.9684,0.4025,-0.128,-0.5511,49.2738856,-122.9807201,0
2.010089,0.3832,1.0061,-0.0819,-1.1878,1.304,-1.9684,0.2595,-0.502,-0.6189,49.2738856,-122.9807201,0
2.015363,0.3832,1.0061,-0.0819,1.2032,0.1589,-0.261,0.2595,-0.502,-0.6189,49.2738856,-122.9807201,0
2.033618,0.3294,0.9762,-0.1337,1.2032,0.1589,-0.261,0.2595,-0.502,-0.6189,49.2738856,-122.9807201,0
2.03871,0.3294,0.9762,-0.1337,1.2032,0.1589,-0.261,0.2595,-0.502,-0.6189,49.2738856,-122.9807201,0
2.057204,0.0631,0.9672,-0.2574,1.2032,0.1589,-0.261,0.2595,-0.502,-0.6189,49.2738856,-122.9807201,0
2.06138,0.1744,0.9458,-0.1733,1.2032,0.1589,-0.261,0.2595,-0.502,-0.6189,49.2738856,-122.9807201,0
2.071446,0.1755,0.9213,-0.1479,1.2032,0.1589,-0.261,0.2595,-0.502,-0.6189,49.2738856,-122.9807201,0
2.075364,0.1755,0.9213,-0.1479,1.2032,0.1589,-0.261,0.2217,-0.8309,-0.9734,49.2738856,-122.9807201,0
2.078581,0.1755,0.9213,-0.1479,1.9784,0.0656,-0.5627,0.2217,-0.8309,-0.9734,49.2738856,-122.9807201,0
2.081031,0.1755,0.9213,-0.1479,1.9784,0.0656,-0.5627,0.2217,-0.8309,-0.9734,49.2738856,-122.9807201,0
2.101652,0.0886,0.8896,-0.2022,1.9784,0.0656,-0.5627,0.2217,-0.8309,-0.9734,49.2738856,-122.9807201,0
2.123819,0.0379,0.8954,-0.2292,1.9784,0.0656,-0.5627,0.2217,-0.8309,-0.9734,49.2738856,-122.9807201,0
2.137504,-0.0038,0.9182,-0.2093,1.9784,0.0656,-0.5627,0.2217,-0.8309,-0.9734,49.2738856,-122.9807201,0
2.140698,-0.0038,0.9182,-0.2093,1.9784,0.0656,-0.5627,0.2217,-0.8309,-0.9734,49.2738856,-122.9807201,0
2.142635,-0.0038,0.9182,-0.2093,1.9784,0.0656,-0.5627,0.2402,-0.5635,-1.0259,49.2738856,-122.9807201,0
2.144636,-0.0038,0.9182,-0.2093,1.5518,-0.2051,-0.4488,0.2402,-0.5635,-1.0259,49.2738856,-122.9807201,0
2.163252,-0.0038,0.9182,-0.2093,1.5518,-0.2051,-0.4488,0.2402,-0.5635,-1.0259,49.2738856,-122.9807201,0
2.166832,-0.0092,0.9397,-0.167,1.5518,-0.2051,-0.4488,0.2402,-0.5635,-1.0259,49.2738856,-122.9807201,0
2.18979,-0.0348,0.9375,-0.1681,1.5518,-0.2051,-0.4488,0.2402,-0.5635,-1.0259,49.2738856,-122.9807201,0
2.193931,-0.0352,0.9222,-0.1613,1.5518,-0.2051,-0.4488,0.2402,-0.5635,-1.0259,49.2738856,-122.9807201,0
2.197579,-0.0352,0.9222,-0.1613,1.5518,-0.2051,-0.4488,0.2402,-0.5635,-1.0259,49.2738856,-122.9807201,0
2.205426,-0.0352,0.9222,-0.1613,1.0449,-0.5481,-0.4813,0.2402,-0.5635,-1.0259,49.2738856,-122.9807201,0
2.20929,-0.0352,0.9222,-0.1613,1.0449,-0.5481,-0.4813,0.2149,-0.3592,-1.0601,49.2738856,-122.9807201,0
2.212664,0.0456,0.8531,-0.176,1.0449,-0.5481,-0.4813,0.2149,-0.3592,-1.0601,49.2738856,-122.9807201,0
2.228187,0.0456,0.8531,-0.176,1.0449,-0.5481,-0.4813,0.2149,-0.3592,-1.0601,49.2738856,-122.9807201,0
2.231361,0.1575,0.822,-0.24,1.0449,-0.5481,-0.4813,0.2149,-0.3592,-1.0601,49.2738856,-122.9807201,0
2.257647,0.0156,0.892,-0.2723,1.0449,-0.5481,-0.4813,0.2149,-0.3592,-1.0601,49.2738856,-122.9807201,0
2.272868,0.0156,0.892,-0.2723,1.0449,-0.5481,-0.4813,0.3018,0.2286,-1.2513,49.2738856,-122.9807201,0
2.277057,-0.2994,0.9707,-0.2577,1.0449,-0.5481,-0.4813,0.3018,0.2286,-1.2513,49.2738856,-122.9807201,0
2.280019,-0.2994,0.9707,-0.2577,1.3409,-0.374,0.1191,0.3018,0.2286,-1.2513,49.2738856,-122.9807201,0
2.282065,-0.2994,0.9707,-0.2577,1.3409,-0.374,0.1191,0.3018,0.2286,-1.2513,49.2738856,-122.9807201,0
2.314996,-0.516,1.0291,-0.2174,1.3409,-0.374,0.1191,0.3018,0.2286,-1.2513,49.2738856,-122.9807201,0
2.316834,-0.1857,1.0028,-0.2709,1.3409,-0.374,0.1191,0.3018,0.2286,-1.2513,49.2738856,-122.9807201,0
2.32407,0.0281,1.0145,-0.2883,1.3409,-0.374,0.1191,0.3018,0.2286,-1.2513,49.2738856,-122.9807201,0
2.336128,0.0281,1.0145,-0.2883,1.3409,-0.374,0.1191,0.3018,0.2286,-1.2513,49.2738856,-122.9807201,0
2.341573,-0.1555,0.9836,-0.3236,1.3409,-0.374,0.1191,0.3018,0.2286,-1.2513,49.2738856,-122.9807201,0
2.343846,-0.1555,0.9836,-0.3236,1.0899,-0.156,-0.6608,0.3018,0.2286,-1.2513,49.2738856,-122.9807201,0
2.345938,-0.1555,0.9836,-0.3236,1.0899,-0.156,-0.6608,0.1089,-0.4233,-1.2319,49.2738856,-122.9807201,0
2.363248,-0.1555,0.9836,-0.3236,1.0899,-0.156,-0.6608,0.1089,-0.4233,-1.2319,49.2738856,-122.9807201,0
2.366287,-0.1793,1.022,-0.2952,1.0899,-0.156,-0.6608,0.1089,-0.4233,-1.2319,49.27374902,-122.9803501,0
2.389671,-0.0649,1.1061,-0.1966,1.0899,-0.156,-0.6608,0.1089,-0.4233,-1.2319,49.27374902,-122.9803501,0
2.398578,-0.0649,1.1061,-0.1966,1.0899,-0.156,-0.6608,0.1089,-0.4233,-1.2319,49.27374902,-122.9803501,0
2.408284,-0.0772,1.1372,-0.1462,1.0899,-0.156,-0.6608,0.1089,-0.4233,-1.2319,49.27374902,-122.9803501,0
2.411993,-0.0772,1.1372,-0.1462,1.0899,-0.156,-0.6608,0.0327,-0.5763,-1.461,49.27374902,-122.9803501,0
2.415044,-0.0772,1.1372,-0.1462,1.5723,0.9605,-1.0397,0.0327,-0.5763,-1.461,49.27374902,-122.9803501,0
2.430669,-0.0288,1.1365,-0.1416,1.5723,0.9605,-1.0397,0.0327,-0.5763,-1.461,49.27374902,-122.9803501,0
2.434298,-0.0288,1.1365,-0.1416,1.5723,0.9605,-1.0397,0.0327,-0.5763,-1.461,49.27374902,-122.9803501,0
2.458849,0.0787,1.2083,-0.1402,1.5723,0.9605,-1.0397,0.0327,-0.5763,-1.461,49.27374902,-122.9803501,0
2.46224,0.0986,1.3797,-0.1547,1.5723,0.9605,-1.0397,0.0327,-0.5763,-1.461,49.27374902,-122.9803501,0
2.477278,0.1423,1.4501,-0.1805,1.5723,0.9605,-1.0397,0.0327,-0.5763,-1.461,49.27374902,-122.9803501,0
2.481153,0.1423,1.4501,-0.1805,3.3295,2.3207,-0.3266,0.0327,-0.5763,-1.461,49.27374902,-122.9803501,0
2.483625,0.1423,1.4501,-0.1805,3.3295,2.3207,-0.3266,0.0932,-0.575,-2.0807,49.27374902,-122.9803501,0
2.485595,0.1423,1.4501,-0.1805,3.3295,2.3207,-0.3266,0.0932,-0.575,-2.0807,49.27374902,-122.9803501,0
2.525262,0.4038,1.5751,-0.2353,3.3295,2.3207,-0.3266,0.0932,-0.575,-2.0807,49.27374902,-122.9803501,0
2.528007,0.7758,1.4944,-0.2731,3.3295,2.3207,-0.3266,0.0932,-0.575,-2.0807,49.27374902,-122.9803501,0
2.536987,0.7758,1.4944,-0.2731,3.3295,2.3207,-0.3266,0.0932,-0.575,-2.0807,49.27374902,-122.9803501,0
2.539497,0.3575,1.312,-0.4802,3.3295,2.3207,-0.3266,0.0932,-0.575,-2.0807,49.27374902,-122.9803501,0
2.544292,0.3575,1.312,-0.4802,3.3295,2.3207,-0.3266,0.4224,-0.0901,-2.8994,49.27374902,-122.9803501,0
2.54686,0.3575,1.312,-0.4802,6.5601,5.3925,0.3219,0.4224,-0.0901,-2.8994,49.27374902,-122.9803501,0
2.56597,0.3575,1.312,-0.4802,6.5601,5.3925,0.3219,0.4224,-0.0901,-2.8994,49.27374902,-122.9803501,0
2.570167,-0.6217,1.1387,-0.8891,6.5601,5.3925,0.3219,0.4224,-0.0901,-2.8994,49.27374902,-122.9803501,0
2.577653,-0.986,0.7889,-0.8356,6.5601,5.3925,0.3219,0.4224,-0.0901,-2.8994,49.27374902,-122.9803501,0
2.598074,-0.915,0.4725,-0.7895,6.5601,5.3925,0.3219,0.4224,-0.0901,-2.8994,49.27374902,-122.9803501,0
2.602648,-0.915,0.4725,-0.7895,6.5601,5.3925,0.3219,0.4224,-0.0901,-2.8994,49.27374902,-122.9803501,0
2.611935,-0.915,0.4725,-0.7895,6.5601,5.3925,0.3219,0.6812,0.2555,-2.5842,49.27374902,-122.9803501,0
2.615619,-0.4422,0.3219,-0.355,6.5601,5.3925,0.3219,0.6812,0.2555,-2.5842,49.27374902,-122.9803501,0
2.618522,-0.4422,0.3219,-0.355,10.3263,7.4208,-1.5251,0.6812,0.2555,-2.5842,49.27374902,-122.9803501,0
2.630464,-0.4422,0.3219,-0.355,10.3263,7.4208,-1.5251,0.6812,0.2555,-2.5842,49.27374902,-122.9803501,0
2.657587,0.0291,0.1793,-0.0312,10.3263,7.4208,-1.5251,0.6812,0.2555,-2.5842,49.27374902,-122.9803501,0
2.660169,0.2869,0.0776,0.0831,10.3263,7.4208,-1.5251,0.6812,0.2555,-2.5842,49.27374902,-122.9803501,0
2.677119,0.2869,0.0776,0.0831,10.3263,7.4208,-1.5251,0.6812,0.2555,-2.5842,49.27374902,-122.9803501,0
2.68245,0.2609,0.2474,0.1101,10.3263,7.4208,-1.5251,0.6812,0.2555,-2.5842,49.27374902,-122.9803501,0
2.68591,0.2609,0.2474,0.1101,10.3263,7.4208,-1.5251,0.2359,-0.7718,1.211,49.27374902,-122.9803501,0
2.68964,0.2609,0.2474,0.1101,-1.6066,-1.0465,-4.7331,0.2359,-0.7718,1.211,49.27374902,-122.9803501,0
2.724205,-0.0663,0.4235,0.062,-1.6066,-1.0465,-4.7331,0.2359,-0.7718,1.211,49.27374902,-122.9803501,0
2.726574,-0.2429,0.5396,0.0173,-1.6066,-1.0465,-4.7331,0.2359,-0.7718,1.211,49.27374902,-122.9803501,0
2.73754,-0.4009,0.6512,-0.0874,-1.6066,-1.0465,-4.7331,0.2359,-0.7718,1.211,49.27374902,-122.9803501,0
2.739889,-0.4009,0.6512,-0.0874,-1.6066,-1.0465,-4.7331,0.2359,-0.7718,1.211,49.27374902,-122.9803501,0
2.752286,-0.4009,0.6512,-0.0874,-1.6066,-1.0465,-4.7331,-0.4296,1.8759,4.1561,49.27374902,-122.9803501,0
2.754655,-0.5677,0.7432,-0.2443,-1.6066,-1.0465,-4.7331,-0.4296,1.8759,4.1561,49.27374902,-122.9803501,0
2.756817,-0.5677,0.7432,-0.2443,5.1417,-6.3306,3.0785,-0.4296,1.8759,4.1561,49.27374902,-122.9803501,0
2.762325,-0.5677,0.7432,-0.2443,5.1417,-6.3306,3.0785,-0.4296,1.8759,4.1561,49.27374902,-122.9803501,0
2.790872,-0.6276,0.8861,-0.4068,5.1417,-6.3306,3.0785,-0.4296,1.8759,4.1561,49.27374902,-122.9803501,0
2.79513,-0.5537,1.0217,-0.4504,5.1417,-6.3306,3.0785,-0.4296,1.8759,4.1561,49.27374902,-122.9803501,0
2.79899,-0.5537,1.0217,-0.4504,5.1417,-6.3306,3.0785,-0.4296,1.8759,4.1561,49.27374902,-122.9803501,0
2.817412,-0.5537,1.0217,-0.4504,5.1417,-6.3306,3.0785,-1.4419,0.9719,5.32,49.27374902,-122.9803501,0
2.821331,-0.5537,1.0217,-0.4504,-3.2974,-3.0331,0.9666,-1.4419,0.9719,5.32,49.27374902,-122.9803501,0
2.824407,-0.2563,1.0731,-0.2372,-3.2974,-3.0331,0.9666,-1.4419,0.9719,5.32,49.27374902,-122.9803501,0
2.828678,-0.2957,1.1306,-0.2072,-3.2974,-3.0331,0.9666,-1.4419,0.9719,5.32,49.27374902,-122.9803501,0
2.832438,-0.2957,1.1306,-0.2072,-3.2974,-3.0331,0.9666,-1.4419,0.9719,5.32,49.27374902,-122.9803501,0
2.857324,-0.4863,1.3681,-0.3671,-3.2974,-3.0331,0.9666,-1.4419,0.9719,5.32,49.27374902,-122.9803501,0
2.876686,-0.4863,1.3681,-0.3671,-3.2974,-3.0331,0.9666,-1.4419,0.9719,5.32,49.27374902,-122.9803501,0
2.880015,-0.4574,1.4338,-0.2809,-3.2974,-3.0331,0.9666,-1.4419,0.9719,5.32,49.27374902,-122.9803501,0
2.882428,-0.4574,1.4338,-0.2809,-3.2974,-3.0331,0.9666,-1.6084,0.7944,4.8315,49.27374902,-122.9803501,0
2.885077,-0.2639,1.13,-0.1828,-3.2974,-3.0331,0.9666,-1.6084,0.7944,4.8315,49.27374902,-122.9803501,0
2.887339,-0.2639,1.13,-0.1828,-6.947,1.0161,-2.5197,-1.6084,0.7944,4.8315,49.27374902,-122.9803501,0
2.923841,-0.3407,1.0889,-0.0031,-6.947,1.0161,-2.5197,-1.6084,0.7944,4.8315,49.27374902,-122.9803501,0
2.926346,-0.2017,1.1101,-0.1189,-6.947,1.0161,-2.5197,-1.6084,0.7944,4.8315,49.27374902,-122.9803501,0
2.937119,-0.2017,1.1101,-0.1189,-6.947,1.0161,-2.5197,-1.6084,0.7944,4.8315,49.27374902,-122.9803501,0
2.95036,-0.2017,1.1101,-0.1189,-6.947,1.0161,-2.5197,-0.7565,0.5206,2.8013,49.27374902,-122.9803501,0
2.952638,-0.1705,1.1653,-0.0808,-6.947,1.0161,-2.5197,-0.7565,0.5206,2.8013,49.27374902,-122.9803501,0
2.954661,-0.1705,1.1653,-0.0808,-7.871,4.3196,-2.372,-0.7565,0.5206,2.8013,49.27374902,-122.9803501,0
2.962843,-0.1481,1.1005,-0.1414,-7.871,4.3196,-2.372,-0.7565,0.5206,2.8013,49.27374902,-122.9803501,0
2.965712,-0.1481,1.1005,-0.1414,-7.871,4.3196,-2.372,-0.7565,0.5206,2.8013,49.27374902,-122.9803501,0
2.991056,-0.189,1.0328,-0.1787,-7.871,4.3196,-2.372,-0.7565,0.5206,2.8013,49.27374902,-122.9803501,0
2.997034,-0.189,1.0328,-0.1787,-7.871,4.3196,-2.372,-0.7565,0.5206,2.8013,49.27374902,-122.9803501,0
3.019232,-0.1403,1.0759,-0.1155,-7.871,4.3196,-2.372,-0.7565,0.5206,2.8013,49.27374902,-122.9803501,0
3.024213,-0.1403,1.0759,-0.1155,-7.871,4.3196,-2.372,0.2608,0.5962,-0.0826,49.27374902,-122.9803501,0
3.02987,-0.0815,1.1793,-0.1437,-7.871,4.3196,-2.372,0.2608,0.5962,-0.0826,49.27374902,-122.9803501,0
3.034169,-0.0815,1.1793,-0.1437,-6.0417,2.587,-0.4497,0.2608,0.5962,-0.0826,49.27374902,-122.9803501,0
3.037798,-0.0815,1.1793,-0.1437,-6.0417,2.587,-0.4497,0.2608,0.5962,-0.0826,49.27374902,-122.9803501,0
3.057567,-0.186,1.2933,-0.0982,-6.0417,2.587,-0.4497,0.2608,0.5962,-0.0826,49.27374902,-122.9803501,0
3.060975,0.1686,1.5186,0.7366,-6.0417,2.587,-0.4497,0.2608,0.5962,-0.0826,49.27374902,-122.9803501,0
3.077364,0.1686,1.5186,0.7366,-6.0417,2.587,-0.4497,0.2608,0.5962,-0.0826,49.27374902,-122.9803501,0
3.080113,0.1292,0.9442,0.1139,-6.0417,2.587,-0.4497,0.2608,0.5962,-0.0826,49.27374902,-122.9803501,0
3.088227,0.1292,0.9442,0.1139,-4.1948,1.8867,-1.2129,0.2608,0.5962,-0.0826,49.27374902,-122.9803501,0
3.090941,0.1292,0.9442,0.1139,-4.1948,1.8867,-1.2129,0.5699,1.6956,-1.5664,49.27374902,-122.9803501,0
3.100877,-0.3647,1.135,-0.6201,-4.1948,1.8867,-1.2129,0.5699,1.6956,-1.5664,49.27374902,-122.9803501,0
3.125211,-0.2173,1.2503,-0.6185,-4.1948,1.8867,-1.2129,0.5699,1.6956,-1.5664,49.27374902,-122.9803501,0
3.136663,-0.2173,1.2503,-0.6185,-4.1948,1.8867,-1.2129,0.5699,1.6956,-1.5664,49.27374902,-122.9803501,0
3.139856,-0.4157,0.7079,-0.4317,-4.1948,1.8867,-1.2129,0.5699,1.6956,-1.5664,49.27374902,-122.9803501,0
3.153122,-0.4157,0.7079,-0.4317,-4.1948,1.8867,-1.2129,1.0091,0.1932,-1.3443,49.27374902,-122.9803501,0
3.157201,-0.0952,0.9216,-0.2427,-4.1948,1.8867,-1.2129,1.0091,0.1932,-1.3443,49.27374902,-122.9803501,0
3.159531,-0.0952,0.9216,-0.2427,-2.1553,2.8939,2.2345,1.0091,0.1932,-1.3443,49.27374902,-122.9803501,0
3.162107,-0.0952,0.9216,-0.2427,-2.1553,2.8939,2.2345,1.0091,0.1932,-1.3443,49.27374902,-122.9803501,0
3.190028,0.4605,1.0357,0.1496,-2.1553,2.8939,2.2345,1.0091,0.1932,-1.3443,49.27374902,-122.9803501,0
3.197038,0.4605,1.0357,0.1496,-2.1553,2.8939,2.2345,1.0091,0.1932,-1.3443,49.27374902,-122.9803501,0
3.200231,0.5036,0.8899,0.0808,-2.1553,2.8939,2.2345,1.0091,0.1932,-1.3443,49.27374902,-122.9803501,0
3.221344,0.5036,0.8899,0.0808,-2.1553,2.8939,2.2345,0.7802,0.0683,-1.0951,49.27374902,-122.9803501,0
3.224003,-0.2619,0.9871,-0.4682,-2.1553,2.8939,2.2345,0.7802,0.0683,-1.0951,49.27374902,-122.9803501,0
3.226017,-0.2619,0.9871,-0.4682,-3.8041,0.6416,-3.3993,0.7802,0.0683,-1.0951,49.27374902,-122.9803501,0
3.257678,-0.3749,0.9882,-0.5418,-3.8041,0.6416,-3.3993,0.7802,0.0683,-1.0951,49.27374902,-122.9803501,0
3.260124,0.3083,0.956,-0.2038,-3.8041,0.6416,-3.3993,0.7802,0.0683,-1.0951,49.27374902,-122.9803501,0
3.277651,0.3083,0.956,-0.2038,-3.8041,0.6416,-3.3993,0.7802,0.0683,-1.0951,49.27374902,-122.9803501,0
3.280193,0.4892,0.9177,-0.0471,-3.8041,0.6416,-3.3993,0.7802,0.0683,-1.0951,49.27374902,-122.9803501,0
3.289902,0.4892,0.9177,-0.0471,-3.8041,0.6416,-3.3993,0.5299,-0.6977,-1.0427,49.27374902,-122.9803501,0
3.292547,0.4892,0.9177,-0.0471,0.7225,0.3966,0.1558,0.5299,-0.6977,-1.0427,49.27374902,-122.9803501,0
3.29501,0.1454,0.9015,-0.2243,0.7225,0.3966,0.1558,0.5299,-0.6977,-1.0427,49.27374902,-122.9803501,0
3.298474,0.1454,0.9015,-0.2243,0.7225,0.3966,0.1558,0.5299,-0.6977,-1.0427,49.27374902,-122.9803501,0
3.313523,-0.0969,0.9,-0.3686,0.7225,0.3966,0.1558,0.5299,-0.6977,-1.0427,49.27374902,-122.9803501,0
3.337269,-0.0969,0.9,-0.3686,0.7225,0.3966,0.1558,0.5299,-0.6977,-1.0427,49.27374902,-122.9803501,0
3.33975,-0.0478,0.9257,-0.2876,0.7225,0.3966,0.1558,0.5299,-0.6977,-1.0427,49.27374902,-122.9803501,0
3.357521,-0.0478,0.9257,-0.2876,0.7225,0.3966,0.1558,0.4563,-0.669,-1.2386,49.27374902,-122.9803501,0
3.359969,-0.0074,0.9207,-0.2125,0.7225,0.3966,0.1558,0.4563,-0.669,-1.2386,49.27374902,-122.9803501,0
3.362064,-0.0074,0.9207,-0.2125,2.5816,0.0036,-0.0187,0.4563,-0.669,-1.2386,49.27374902,-122.9803501,0
3.364346,-0.0074,0.9207,-0.2125,2.5816,0.0036,-0.0187,0.4563,-0.669,-1.2386,49.27374902,-122.9803501,0
3.39077,-0.0068,0.905,-0.213,2.5816,0.0036,-0.0187,0.4563,-0.669,-1.2386,49.27374902,-122.9803501,0
3.393472,-0.0347,0.8975,-0.2642,2.5816,0.0036,-0.0187,0.4563,-0.669,-1.2386,49.27374902,-122.9803501,0
3.397466,-0.0347,0.8975,-0.2642,2.5816,0.0036,-0.0187,0.4563,-0.669,-1.2386,49.27374902,-122.9803501,0
3.425179,-0.0347,0.8975,-0.2642,2.5816,0.0036,-0.0187,0.4068,-0.6257,-1.2564,49.27374902,-122.9803501,0
3.43009,-0.064,0.9063,-0.3107,2.5816,0.0036,-0.0187,0.4068,-0.6257,-1.2564,49.27374902,-122.9803501,0
3.43474,-0.132,0.9294,-0.2993,2.5816,0.0036,-0.0187,0.4068,-0.6257,-1.2564,49.27374902,-122.9803501,0
3.439594,-0.132,0.9294,-0.2993,0.6977,-0.0366,-0.5138,0.4068,-0.6257,-1.2564,49.27374902,-122.9803501,0
3.459338,-0.1777,0.948,-0.2867,0.6977,-0.0366,-0.5138,0.4068,-0.6257,-1.2564,49.27374902,-122.9803501,0
3.477114,-0.1777,0.948,-0.2867,0.6977,-0.0366,-0.5138,0.4068,-0.6257,-1.2564,49.27374902,-122.9803501,0
3.481216,-0.2454,1.0111,-0.3156,0.6977,-0.0366,-0.5138,0.4068,-0.6257,-1.2564,49.27374902,-122.9803501,0
3.495282,-0.1337,1.0032,-0.2628,0.6977,-0.0366,-0.5138,0.4068,-0.6257,-1.2564,49.27374902,-122.9803501,0
3.499651,-0.1337,1.0032,-0.2628,1.3052,0.0853,-0.4447,0.4068,-0.6257,-1.2564,49.27374902,-122.9803501,0
3.502728,-0.1337,1.0032,-0.2628,1.3052,0.0853,-0.4447,0.3305,-0.866,-1.2524,49.27374902,-122.9803501,0
3.505786,-0.1337,1.0032,-0.2628,1.3052,0.0853,-0.4447,0.3305,-0.866,-1.2524,49.27374902,-122.9803501,0
3.524253,0.0613,1.0499,-0.249,1.3052,0.0853,-0.4447,0.3305,-0.866,-1.2524,49.27374902,-122.9803501,0
3.52891,0.0969,1.1105,-0.2293,1.3052,0.0853,-0.4447,0.3305,-0.866,-1.2524,49.27374902,-122.9803501,0
3.536734,0.0969,1.1105,-0.2293,1.3052,0.0853,-0.4447,0.3305,-0.866,-1.2524,49.27374902,-122.9803501,0
3.559399,0.0048,1.154,-0.2356,1.3052,0.0853,-0.4447,0.3305,-0.866,-1.2524,49.27374902,-122.9803501,0
3.563075,-0.122,1.1356,-0.2115,1.3052,0.0853,-0.4447,0.3305,-0.866,-1.2524,49.27374902,-122.9803501,0
3.56585,-0.122,1.1356,-0.2115,1.3052,0.0853,-0.4447,0.3482,-0.7718,-1.6563,49.27374902,-122.9803501,0
3.568939,-0.122,1.1356,-0.2115,1.5338,1.2344,-0.3652,0.3482,-0.7718,-1.6563,49.27374902,-122.9803501,0
3.57178,-0.122,1.1356,-0.2115,1.5338,1.2344,-0.3652,0.3482,-0.7718,-1.6563,49.27374902,-122.9803501,0
3.590937,-0.1138,1.152,-0.1687,1.5338,1.2344,-0.3652,0.3482,-0.7718,-1.6563,49.27374902,-122.9803501,0
3.597491,-0.1138,1.152,-0.1687,1.5338,1.2344,-0.3652,0.3482,-0.7718,-1.6563,49.27374902,-122.9803501,0
3.62881,-0.1138,1.152,-0.1687,1.5338,1.2344,-0.3652,0.5171,-0.932,-2.1835,49.27374902,-122.9803501,0
3.634457,-0.012,1.176,-0.1342,1.5338,1.2344,-0.3652,0.5171,-0.932,-2.1835,49.27374902,-122.9803501,0
3.639226,0.0452,1.2986,-0.215,1.5338,1.2344,-0.3652,0.5171,-0.932,-2.1835,49.27374902,-122.9803501,0
3.642761,0.0452,1.2986,-0.215,4.3835,3.0771,0.1964,0.5171,-0.932,-2.1835,49.27374902,-122.9803501,0
3.659437,0.1192,1.4441,-0.3108,4.3835,3.0771,0.1964,0.5171,-0.932,-2.1835,49.27374902,-122.9803501,0
3.665217,0.4163,1.4406,-0.253,4.3835,3.0771,0.1964,0.5171,-0.932,-2.1835,49.27374902,-122.9803501,0
3.67878,0.4163,1.4406,-0.253,4.3835,3.0771,0.1964,0.5171,-0.932,-2.1835,49.27374902,-122.9803501,0
3.684286,0.67,1.6787,-0.2934,4.3835,3.0771,0.1964,0.5171,-0.932,-2.1835,49.27374902,-122.9803501,0
3.696994,0.67,1.6787,-0.2934,4.3835,3.0771,0.1964,0.9804,-1.7333,-2.7849,49.27374902,-122.9803501,0
3.702096,0.67,1.6787,-0.2934,4.3835,3.0771,0.1964,0.9804,-1.7333,-2.7849,49.27374902,-122.9803501,0
3.704631,0.2218,1.6671,-0.4396,4.3835,3.0771,0.1964,0.9804,-1.7333,-2.7849,49.27374902,-122.9803501,0
3.707326,0.2218,1.6671,-0.4396,5.7642,5.2727,0.46,0.9804,-1.7333,-2.7849,49.27374902,-122.9803501,0
3.724897,-0.6806,1.1951,-0.6455,5.7642,5.2727,0.46,0.9804,-1.7333,-2.7849,49.27374902,-122.9803501,0
3.736906,-0.6806,1.1951,-0.6455,5.7642,5.2727,0.46,0.9804,-1.7333,-2.7849,49.27374902,-122.9803501,0
3.740919,-0.9712,0.7218,-0.6494,5.7642,5.2727,0.46,0.9804,-1.7333,-2.7849,49.27374902,-122.9803501,0
3.763177,-0.9712,0.7218,-0.6494,5.7642,5.2727,0.46,1.0326,0.1251,-2.6911,49.27374902,-122.9803501,0
3.767558,-0.9712,0.7218,-0.6494,5.7642,5.2727,0.46,1.0326,0.1251,-2.6911,49.27374902,-122.9803501,0
3.770597,-1.04,0.3876,-0.7562,5.7642,5.2727,0.46,1.0326,0.1251,-2.6911,49.27374902,-122.9803501,0
3.773677,-1.04,0.3876,-0.7562,10.6817,9.6942,-0.3995,1.0326,0.1251,-2.6911,49.27374902,-122.9803501,0
3.79109,-0.674,0.1586,-0.321,10.6817,9.6942,-0.3995,1.0326,0.1251,-2.6911,49.27374902,-122.9803501,0
3.796321,-0.674,0.1586,-0.321,10.6817,9.6942,-0.3995,1.0326,0.1251,-2.6911,49.27374902,-122.9803501,0
3.799692,-0.1637,-0.016,-0.0613,10.6817,9.6942,-0.3995,1.0326,0.1251,-2.6911,49.27374902,-122.9803501,0
3.812561,0.1047,-0.0408,0.2317,10.6817,9.6942,-0.3995,1.0326,0.1251,-2.6911,49.27374902,-122.9803501,0
3.831415,0.1047,-0.0408,0.2317,10.6817,9.6942,-0.3995,0.328,-2.0011,1.3857,49.27374902,-122.9803501,0
3.833904,0.0789,0.1323,0.1987,10.6817,9.6942,-0.3995,0.328,-2.0011,1.3857,49.27374902,-122.9803501,0
3.835717,0.0789,0.1323,0.1987,-2.1595,0.4416,-4.2836,0.328,-2.0011,1.3857,49.27374902,-122.9803501,0
3.85869,-0.1296,0.3016,0.0703,-2.1595,0.4416,-4.2836,0.328,-2.0011,1.3857,49.27374902,-122.9803501,0
3.877691,-0.1296,0.3016,0.0703,-2.1595,0.4416,-4.2836,0.328,-2.0011,1.3857,49.27374902,-122.9803501,0
3.882108,-0.1346,0.4179,0.0538,-2.1595,0.4416,-4.2836,0.328,-2.0011,1.3857,49.27374902,-122.9803501,0
3.897197,-0.1544,0.4448,0.0586,-2.1595,0.4416,-4.2836,0.328,-2.0011,1.3857,49.27374902,-122.9803501,0
3.901694,-0.1544,0.4448,0.0586,-2.1595,0.4416,-4.2836,0.328,-2.0011,1.3857,49.27374902,-122.9803501,0
3.904418,-0.1544,0.4448,0.0586,-2.1595,0.4416,-4.2836,-0.016,0.5933,4.189,49.27374902,-122.9803501,0
3.907259,-0.1544,0.4448,0.0586,3.8067,-7.4144,3.0396,-0.016,0.5933,4.189,49.27374902,-122.9803501,0
3.924115,-0.2232,0.6964,-0.1005,3.8067,-7.4144,3.0396,-0.016,0.5933,4.189,49.27374902,-122.9803501,0
3.937183,-0.2232,0.6964,-0.1005,3.8067,-7.4144,3.0396,-0.016,0.5933,4.189,49.27374902,-122.9803501,0
3.941057,-0.4183,0.9731,-0.1932,3.8067,-7.4144,3.0396,-0.016,0.5933,4.189,49.27374902,-122.9803501,0
3.961182,-0.4183,0.9731,-0.1932,3.8067,-7.4144,3.0396,-0.016,0.5933,4.189,49.27374902,-122.9803501,0
3.964201,-0.6713,1.0862,-0.4717,3.8067,-7.4144,3.0396,-0.016,0.5933,4.189,49.27374902,-122.9803501,0
3.966383,-0.6713,1.0862,-0.4717,3.8067,-7.4144,3.0396,-0.9549,1.4763,5.4671,49.27374902,-122.9803501,0
3.969336,-0.477,1.3269,-0.4321,3.8067,-7.4144,3.0396,-0.9549,1.4763,5.4671,49.27374902,-122.9803501,0
3.971814,-0.477,1.3269,-0.4321,-0.3694,-4.7301,2.33,-0.9549,1.4763,5.4671,49.27374902,-122.9803501,0
3.989724,-0.4237,1.2907,-0.2973,-0.3694,-4.7301,2.33,-0.9549,1.4763,5.4671,49.27374902,-122.9803501,0
3.997779,-0.4237,1.2907,-0.2973,-0.3694,-4.7301,2.33,-0.9549,1.4763,5.4671,49.27374902,-122.9803501,0
4.034289,-0.4237,1.2907,-0.2973,-6.7435,1.738,-2.1111,-0.9549,1.4763,5.4671,49.27374902,-122.9803501,0
4.037449,-0.4237,1.2907,-0.2973,-6.7435,1.738,-2.1111,-1.3165,0.9783,5.131,49.27374902,-122.9803501,0
4.039649,-0.3873,1.1461,-0.2297,-6.7435,1.738,-2.1111,-1.3165,0.9783,5.131,49.27374902,-122.9803501,0
4.04157,-0.4535,1.0944,-0.3141,-6.7435,1.738,-2.1111,-1.3165,0.9783,5.131,49.27374902,-122.9803501,0
4.058569,-0.6259,1.271,-0.3044,-6.7435,1.738,-2.1111,-1.3165,0.9783,5.131,49.27374902,-122.9803501,0
4.078768,-0.5085,1.2285,-0.248,-6.7435,1.738,-2.1111,-1.3165,0.9783,5.131,49.27374902,-122.9803501,0
4.084048,-0.5085,1.2285,-0.248,-6.7435,1.738,-2.1111,-1.3165,0.9783,5.131,49.27374902,-122.9803501,0
4.096108,-0.2407,1.1918,-0.0554,-6.7435,1.738,-2.1111,-1.3165,0.9783,5.131,49.27374902,-122.9803501,0
4.100569,-0.2407,1.1918,-0.0554,-6.7435,1.738,-2.1111,-1.3165,0.9783,5.131,49.27374902,-122.9803501,0
4.103159,-0.2012,1.0498,0.0558,-6.7435,1.738,-2.1111,-1.3165,0.9783,5.131,49.27374902,-122.9803501,0
4.105361,-0.2012,1.0498,0.0558,-6.7435,1.738,-2.1111,-0.7454,0.2439,3.2482,49.27374902,-122.9803501,0
4.107735,-0.2012,1.0498,0.0558,-8.1577,3.3567,-2.1137,-0.7454,0.2439,3.2482,49.27374902,-122.9803501,0
4.124275,-0.2008,1.0301,-0.0327,-8.1577,3.3567,-2.1137,-0.7454,0.2439,3.2482,49.27374902,-122.9803501,0
4.137346,-0.2008,1.0301,-0.0327,-8.1577,3.3567,-2.1137,-0.7454,0.2439,3.2482,49.27374902,-122.9803501,0
4.162349,-0.1351,1.0297,-0.0667,-8.1577,3.3567,-2.1137,-0.7454,0.2439,3.2482,49.27374902,-122.9803501,0
4.166715,-0.1901,0.9331,-0.1314,-8.1577,3.3567,-2.1137,-0.7454,0.2439,3.2482,49.27374902,-122.9803501,0
4.169902,-0.1901,0.9331,-0.1314,-8.1577,3.3567,-2.1137,-0.7454,0.2439,3.2482,49.27374902,-122.9803501,0
4.172945,-0.1901,0.9331,-0.1314,-8.1577,3.3567,-2.1137,0.3606,1.4465,-0.2541,49.27374902,-122.9803501,0
4.176094,-0.1901,0.9331,-0.1314,-7.1138,3.1342,-0.5568,0.3606,1.4465,-0.2541,49.27374902,-122.9803501,0
4.190114,-0.1814,1.2657,-0.2357,-7.1138,3.1342,-0.5568,0.3606,1.4465,-0.2541,49.27374902,-122.9803501,0
4.197546,-0.1814,1.2657,-0.2357,-7.1138,3.1342,-0.5568,0.3606,1.4465,-0.2541,49.27374902,-122.9803501,0
4.237466,-0.1814,1.2657,-0.2357,-7.1138,3.1342,-0.5568,0.7135,2.4379,-1.8289,49.27374902,-122.9803501,0
4.240454,0.9579,1.5904,0.9399,-7.1138,3.1342,-0.5568,0.7135,2.4379,-1.8289,49.27366895,-122.9804037,1.30999994
4.242324,0.968,1.0284,0.3655,-7.1138,3.1342,-0.5568,0.7135,2.4379,-1.8289,49.27366895,-122.9804037,1.30999994
4.244113,0.968,1.0284,0.3655,-4.2215,1.2507,-0.5043,0.7135,2.4379,-1.8289,49.27366895,-122.9804037,1.30999994
4.245562,-0.7688,1.1624,-0.8323,-4.2215,1.2507,-0.5043,0.7135,2.4379,-1.8289,49.27366895,-122.9804037,1.30999994
4.257521,-0.8329,1.3131,-0.6622,-4.2215,1.2507,-0.5043,0.7135,2.4379,-1.8289,49.27366895,-122.9804037,1.30999994
4.277355,-0.4339,0.5858,-0.5348,-4.2215,1.2507,-0.5043,0.7135,2.4379,-1.8289,49.27366895,-122.9804037,1.30999994
4.280514,-0.4339,0.5858,-0.5348,-4.2215,1.2507,-0.5043,0.7135,2.4379,-1.8289,49.27366895,-122.9804037,1.30999994
4.296786,-0.2334,0.8089,-0.6079,-4.2215,1.2507,-0.5043,0.7135,2.4379,-1.8289,49.27366895,-122.9804037,1.30999994
4.301042,-0.2334,0.8089,-0.6079,-4.2215,1.2507,-0.5043,0.7135,2.4379,-1.8289,49.27366895,-122.9804037,1.30999994
4.307291,-0.2334,0.8089,-0.6079,-4.2215,1.2507,-0.5043,1.2182,-0.3138,-1.7411,49.27366895,-122.9804037,1.30999994
4.311499,-0.2334,0.8089,-0.6079,1.5352,3.4989,2.1252,1.2182,-0.3138,-1.7411,49.27366895,-122.9804037,1.30999994
4.323882,-0.4304,1.195,-0.1901,1.5352,3.4989,2.1252,1.2182,-0.3138,-1.7411,49.27366895,-122.9804037,1.30999994
4.336366,-0.4304,1.195,-0.1901,1.5352,3.4989,2.1252,1.2182,-0.3138,-1.7411,49.27366895,-122.9804037,1.30999994
4.340226,0.2647,1.0201,0.2601,1.5352,3.4989,2.1252,1.2182,-0.3138,-1.7411,49.27366895,-122.9804037,1.30999994
4.373207,0.2647,1.0201,0.2601,1.5352,3.4989,2.1252,0.7066,-0.0406,-1.1569,49.27366895,-122.9804037,1.30999994
4.376043,0.348,0.9346,0.0081,1.5352,3.4989,2.1252,0.7066,-0.0406,-1.1569,49.27366895,-122.9804037,1.30999994
4.378407,-0.4498,1.0025,-0.7203,1.5352,3.4989,2.1252,0.7066,-0.0406,-1.1569,49.27366895,-122.9804037,1.30999994
4.380452,-0.4498,1.0025,-0.7203,-5.5119,0.182,-3.8411,0.7066,-0.0406,-1.1569,49.27366895,-122.9804037,1.30999994
4.398589,-0.4498,1.0025,-0.7203,-5.5119,0.182,-3.8411,0.7066,-0.0406,-1.1569,49.27366895,-122.9804037,1.30999994
4.401477,-0.5853,0.8198,-0.6194,-5.5119,0.182,-3.8411,0.7066,-0.0406,-1.1569,49.27366895,-122.9804037,1.30999994
4.430449,0.1441,0.9248,-0.1764,-5.5119,0.182,-3.8411,0.7066,-0.0406,-1.1569,49.27366895,-122.9804037,1.30999994
4.437763,0.1441,0.9248,-0.1764,-5.5119,0.182,-3.8411,0.7066,-0.0406,-1.1569,49.27366895,-122.9804037,1.30999994
4.442975,0.1441,0.9248,-0.1764,-5.5119,0.182,-3.8411,0.3793,-0.7547,-0.6999,49.27366895,-122.9804037,1.30999994
4.448269,0.1661,0.9926,-0.0951,-5.5119,0.182,-3.8411,0.3793,-0.7547,-0.6999,49.27366895,-122.9804037,1.30999994
4.453028,0.1661,0.9926,-0.0951,-0.2072,1.0019,0.5519,0.3793,-0.7547,-0.6999,49.27366895,-122.9804037,1.30999994
4.458345,-0.0093,0.9635,-0.2874,-0.2072,1.0019,0.5519,0.3793,-0.7547,-0.6999,49.27366895,-122.9804037,1.30999994
4.477238,-0.0093,0.9635,-0.2874,-0.2072,1.0019,0.5519,0.3793,-0.7547,-0.6999,49.27366895,-122.9804037,1.30999994
4.482354,0.1268,0.9138,-0.3089,-0.2072,1.0019,0.5519,0.3793,-0.7547,-0.6999,49.27366895,-122.9804037,1.30999994
4.495625,0.2278,0.9233,-0.1669,-0.2072,1.0019,0.5519,0.3793,-0.7547,-0.6999,49.27366895,-122.9804037,1.30999994
4.50071,0.2278,0.9233,-0.1669,-0.2072,1.0019,0.5519,0.3793,-0.7547,-0.6999,49.27366895,-122.9804037,1.30999994
4.50836,0.2278,0.9233,-0.1669,-0.2072,1.0019,0.5519,0.338,-0.7387,-0.886,49.27366895,-122.9804037,1.30999994
4.512919,0.2278,0.9233,-0.1669,-0.2628,0.0831,-0.7235,0.338,-0.7387,-0.886,49.27366895,-122.9804037,1.30999994
4.515935,0.058,0.9066,-0.1912,-0.2628,0.0831,-0.7235,0.338,-0.7387,-0.886,49.27366895,-122.9804037,1.30999994
4.537667,-0.1191,0.8938,-0.2908,-0.2628,0.0831,-0.7235,0.338,-0.7387,-0.886,49.27366895,-122.9804037,1.30999994
4.541941,-0.1191,0.8938,-0.2908,-0.2628,0.0831,-0.7235,0.338,-0.7387,-0.886,49.27366895,-122.9804037,1.30999994
4.567088,-0.0856,0.8937,-0.3033,-0.2628,0.0831,-0.7235,0.338,-0.7387,-0.886,49.27366895,-122.9804037,1.30999994
4.57684,-0.0856,0.8937,-0.3033,2.3899,0.184,-0.026,0.338,-0.7387,-0.886,49.27366895,-122.9804037,1.30999994
4.581506,-0.1068,0.9113,-0.2584,2.3899,0.184,-0.026,0.338,-0.7387,-0.886,49.27366895,-122.9804037,1.30999994
4.585022,-0.1068,0.9113,-0.2584,2.3899,0.184,-0.026,0.3844,-0.5644,-1.1353,49.27366895,-122.9804037,1.30999994
4.59342,-0.1302,0.9452,-0.2309,2.3899,0.184,-0.026,0.3844,-0.5644,-1.1353,49.27366895,-122.9804037,1.30999994
4.59821,-0.1302,0.9452,-0.2309,2.3899,0.184,-0.026,0.3844,-0.5644,-1.1353,49.27366895,-122.9804037,1.30999994
4.629111,-0.1193,1.0035,-0.2787,2.3899,0.184,-0.026,0.3844,-0.5644,-1.1353,49.27366895,-122.9804037,1.30999994
4.634403,-0.0837,1.0396,-0.3046,2.3899,0.184,-0.026,0.3844,-0.5644,-1.1353,49.27366895,-122.9804037,1.30999994
4.638523,-0.0837,1.0396,-0.3046,2.3899,0.184,-0.026,0.3844,-0.5644,-1.1353,49.27366895,-122.9804037,1.30999994
4.644564,-0.0837,1.0396,-0.3046,1.0492,0.2416,-0.2367,0.3844,-0.5644,-1.1353,49.27366895,-122.9804037,1.30999994
4.649087,-0.0837,1.0396,-0.3046,1.0492,0.2416,-0.2367,0.3792,-0.6341,-1.2944,49.27366895,-122.9804037,1.30999994
4.652509,-0.0888,1.0675,-0.3113,1.0492,0.2416,-0.2367,0.3792,-0.6341,-1.2944,49.27366895,-122.9804037,1.30999994
4.677722,-0.0888,1.0675,-0.3113,1.0492,0.2416,-0.2367,0.3792,-0.6341,-1.2944,49.27366895,-122.9804037,1.30999994
4.681808,-0.1146,1.0859,-0.2843,1.0492,0.2416,-0.2367,0.3792,-0.6341,-1.2944,49.27366895,-122.9804037,1.30999994
4.695668,-0.0779,1.0964,-0.2205,1.0492,0.2416,-0.2367,0.3792,-0.6341,-1.2944,49.27366895,-122.9804037,1.30999994
4.701292,-0.0779,1.0964,-0.2205,1.0492,0.2416,-0.2367,0.3792,-0.6341,-1.2944,49.27366895,-122.9804037,1.30999994
4.711114,-0.0079,1.1167,-0.1648,1.0492,0.2416,-0.2367,0.3792,-0.6341,-1.2944,49.27366895,-122.9804037,1.30999994
4.715454,-0.0079,1.1167,-0.1648,2.117,1.7633,-0.25,0.3792,-0.6341,-1.2944,49.27366895,-122.9804037,1.30999994
4.718496,-0.0079,1.1167,-0.1648,2.117,1.7633,-0.25,0.4317,-0.7171,-1.64,49.27366895,-122.9804037,1.30999994
4.723821,-0.0917,1.1616,-0.208,2.117,1.7633,-0.25,0.4317,-0.7171,-1.64,49.27366895,-122.9804037,1.30999994
4.738571,-0.0917,1.1616,-0.208,2.117,1.7633,-0.25,0.4317,-0.7171,-1.64,49.27366895,-122.9804037,1.30999994
4.779668,-0.0917,1.1616,-0.208,2.117,1.7633,-0.25,0.5449,-1.2423,-2.094,49.27366895,-122.9804037,1.30999994
4.782974,-0.0917,1.1616,-0.208,3.7717,3.1281,0.43,0.5449,-1.2423,-2.094,49.27366895,-122.9804037,1.30999994
4.785189,-0.1815,1.2722,-0.3164,3.7717,3.1281,0.43,0.5449,-1.2423,-2.094,49.27366895,-122.9804037,1.30999994
4.78746,0.0103,1.4017,-0.338,3.7717,3.1281,0.43,0.5449,-1.2423,-2.094,49.27366895,-122.9804037,1.30999994
4.789789,0.2062,1.634,-0.3913,3.7717,3.1281,0.43,0.5449,-1.2423,-2.094,49.27366895,-122.9804037,1.30999994
4.799516,0.2062,1.634,-0.3913,3.7717,3.1281,0.43,0.5449,-1.2423,-2.094,49.27366895,-122.9804037,1.30999994
4.816041,0.4331,1.5633,-0.2626,3.7717,3.1281,0.43,0.5449,-1.2423,-2.094,49.27366895,-122.9804037,1.30999994
4.819505,0.4016,1.3024,-0.2058,3.7717,3.1281,0.43,0.5449,-1.2423,-2.094,49.27366895,-122.9804037,1.30999994
4.82976,0.4016,1.3024,-0.2058,3.7717,3.1281,0.43,0.5449,-1.2423,-2.094,49.27366895,-122.9804037,1.30999994
4.847186,-0.3301,1.1411,-0.4133,3.7717,3.1281,0.43,0.5449,-1.2423,-2.094,49.27366895,-122.9804037,1.30999994
4.851991,-0.3301,1.1411,-0.4133,3.7717,3.1281,0.43,0.9163,-1.5855,-2.5524,49.27366895,-122.9804037,1.30999994
4.855383,-0.3301,1.1411,-0.4133,5.742,6.9489,-0.8066,0.9163,-1.5855,-2.5524,49.27366895,-122.9804037,1.30999994
4.860507,-0.8357,0.8476,-0.7536,5.742,6.9489,-0.8066,0.9163,-1.5855,-2.5524,49.27366895,-122.9804037,1.30999994
4.877122,-0.8484,0.5629,-0.6408,5.742,6.9489,-0.8066,0.9163,-1.5855,-2.5524,49.27366895,-122.9804037,1.30999994
4.883049,-0.8484,0.5629,-0.6408,5.742,6.9489,-0.8066,0.9163,-1.5855,-2.5524,49.27366895,-122.9804037,1.30999994
4.896831,-0.7213,0.3289,-0.4844,5.742,6.9489,-0.8066,0.9163,-1.5855,-2.5524,49.27366895,-122.9804037,1.30999994
4.901474,-0.7213,0.3289,-0.4844,5.742,6.9489,-0.8066,0.9163,-1.5855,-2.5524,49.27366895,-122.9804037,1.30999994
4.914744,-0.7213,0.3289,-0.4844,5.742,6.9489,-0.8066,0.8669,-1.2725,-1.2864,49.27366895,-122.9804037,1.30999994
4.919796,-0.2329,0.1213,-0.1795,5.742,6.9489,-0.8066,0.8669,-1.2725,-1.2864,49.27366895,-122.9804037,1.30999994
4.922507,-0.2329,0.1213,-0.1795,6.7352,6.3072,-1.199,0.8669,-1.2725,-1.2864,49.27366895,-122.9804037,1.30999994
4.939677,-0.2329,0.1213,-0.1795,6.7352,6.3072,-1.199,0.8669,-1.2725,-1.2864,49.27366895,-122.9804037,1.30999994
4.944025,0.164,0.1315,0.0443,6.7352,6.3072,-1.199,0.8669,-1.2725,-1.2864,49.27366895,-122.9804037,1.30999994
4.983101,0.164,0.1315,0.0443,6.7352,6.3072,-1.199,0.3202,-0.9873,1.8594,49.27366895,-122.9804037,1.30999994
4.98955,0.164,0.1315,0.0443,-0.4263,-2.9535,-2.644,0.3202,-0.9873,1.8594,49.27366895,-122.9804037,1.30999994
4.993719,0.2197,0.2059,0.1235,-0.4263,-2.9535,-2.644,0.3202,-0.9873,1.8594,49.27366895,-122.9804037,1.30999994
4.998549,-0.0104,0.4054,-0.0146,-0.4263,-2.9535,-2.644,0.3202,-0.9873,1.8594,49.27366895,-122.9804037,1.30999994
5.00281,-0.0104,0.4054,-0.0146,-0.4263,-2.9535,-2.644,0.3202,-0.9873,1.8594,49.27366895,-122.9804037,1.30999994
5.006831,-0.1449,0.5536,-0.0942,-0.4263,-2.9535,-2.644,0.3202,-0.9873,1.8594,49.27366895,-122.9804037,1.30999994
5.029252,-0.1449,0.5536,-0.0942,-0.4263,-2.9535,-2.644,0.3202,-0.9873,1.8594,49.27366895,-122.9804037,1.30999994
5.032129,-0.159,0.547,-0.0657,-0.4263,-2.9535,-2.644,0.3202,-0.9873,1.8594,49.27366895,-122.9804037,1.30999994
5.050368,-0.2459,0.6226,-0.1321,-0.4263,-2.9535,-2.644,0.3202,-0.9873,1.8594,49.27366895,-122.9804037,1.30999994
5.051947,-0.2459,0.6226,-0.1321,4.296,-5.2866,2.6209,0.3202,-0.9873,1.8594,49.27366895,-122.9804037,1.30999994
5.053061,-0.2459,0.6226,-0.1321,4.296,-5.2866,2.6209,-0.1891,1.2744,4.0568,49.27366895,-122.9804037,1.30999994
5.054242,-0.3864,0.8046,-0.2433,4.296,-5.2866,2.6209,-0.1891,1.2744,4.0568,49.27366895,-122.9804037,1.30999994
5.079446,-0.3864,0.8046,-0.2433,4.296,-5.2866,2.6209,-0.1891,1.2744,4.0568,49.27366895,-122.9804037,1.30999994
5.081802,-0.5014,0.9526,-0.3294,4.296,-5.2866,2.6209,-0.1891,1.2744,4.0568,49.27366895,-122.9804037,1.30999994
5.096714,-0.3973,1.0493,-0.2718,4.296,-5.2866,2.6209,-0.1891,1.2744,4.0568,49.27366895,-122.9804037,1.30999994
5.099446,-0.3973,1.0493,-0.2718,4.296,-5.2866,2.6209,-0.1891,1.2744,4.0568,49.27366895,-122.9804037,1.30999994
5.119249,-0.3973,1.0493,-0.2718,4.296,-5.2866,2.6209,-1.0051,1.1951,5.0474,49.27366895,-122.9804037,1.30999994
5.12177,-0.1853,1.1157,-0.1222,4.296,-5.2866,2.6209,-1.0051,1.1951,5.0474,49.27366895,-122.9804037,1.30999994
5.123826,-0.1853,1.1157,-0.1222,-2.0398,-2.5378,0.509,-1.0051,1.1951,5.0474,49.27366895,-122.9804037,1.30999994
5.140199,-0.1731,1.1796,-0.138,-2.0398,-2.5378,0.509,-1.0051,1.1951,5.0474,49.27366895,-122.9804037,1.30999994
5.144912,-0.1731,1.1796,-0.138,-2.0398,-2.5378,0.509,-1.0051,1.1951,5.0474,49.27366895,-122.9804037,1.30999994
5.186049,-0.3162,1.3351,-0.3257,-2.0398,-2.5378,0.509,-1.0051,1.1951,5.0474,49.27366895,-122.9804037,1.30999994
5.192363,-0.3826,1.4049,-0.3868,-2.0398,-2.5378,0.509,-1.0051,1.1951,5.0474,49.27366895,-122.9804037,1.30999994
5.196142,-0.3826,1.4049,-0.3868,-5.8713,1.716,-1.1632,-1.0051,1.1951,5.0474,49.27366895,-122.9804037,1.30999994
5.200283,-0.3826,1.4049,-0.3868,-5.8713,1.716,-1.1632,-1.3645,1.2327,5.0112,49.27366895,-122.9804037,1.30999994
5.203161,-0.2481,1.2814,-0.2843,-5.8713,1.716,-1.1632,-1.3645,1.2327,5.0112,49.27366895,-122.9804037,1.30999994
5.208119,-0.2481,1.2814,-0.2843,-5.8713,1.716,-1.1632,-1.3645,1.2327,5.0112,49.27366895,-122.9804037,1.30999994
5.235404,0.0009,1.1499,-0.0659,-5.8713,1.716,-1.1632,-1.3645,1.2327,5.0112,49.27366895,-122.9804037,1.30999994
5.239694,0.1154,1.1356,0.0731,-5.8713,1.716,-1.1632,-1.3645,1.2327,5.0112,49.27365418,-122.9803926,0.47
5.242314,0.1154,1.1356,0.0731,-5.8713,1.716,-1.1632,-1.3645,1.2327,5.0112,49.27365418,-122.9803926,0.47
5.253168,-0.0592,1.0474,-0.0035,-5.8713,1.716,-1.1632,-1.3645,1.2327,5.0112,49.27365418,-122.9803926,0.47
5.255519,-0.0592,1.0474,-0.0035,-5.8713,1.716,-1.1632,-0.5873,1.2312,2.6885,49.27365418,-122.9803926,0.47
5.257766,-0.0592,1.0474,-0.0035,-7.0353,4.8388,-2.6514,-0.5873,1.2312,2.6885,49.27365418,-122.9803926,0.47
5.277824,-0.2459,0.966,-0.1526,-7.0353,4.8388,-2.6514,-0.5873,1.2312,2.6885,49.27365418,-122.9803926,0.47
5.280536,-0.2459,0.966,-0.1526,-7.0353,4.8388,-2.6514,-0.5873,1.2312,2.6885,49.27365418,-122.9803926,0.47
5.316795,-0.3074,0.9056,-0.2834,-7.0353,4.8388,-2.6514,-0.5873,1.2312,2.6885,49.27365418,-122.9803926,0.47
5.319889,-0.3438,0.8182,-0.2861,-7.0353,4.8388,-2.6514,-0.5873,1.2312,2.6885,49.27365418,-122.9803926,0.47
5.321884,-0.3438,0.8182,-0.2861,-7.0353,4.8388,-2.6514,0.8262,1.6438,-1.452,49.27365418,-122.9803926,0.47
5.323943,-0.5097,0.7504,-0.4016,-7.0353,4.8388,-2.6514,0.8262,1.6438,-1.452,49.27365418,-122.9803926,0.47
5.325888,-0.5097,0.7504,-0.4016,-3.4277,2.2157,0.2782,0.8262,1.6438,-1.452,49.27365418,-122.9803926,0.47
5.338134,-0.5097,0.7504,-0.4016,-3.4277,2.2157,0.2782,0.8262,1.6438,-1.452,49.27365418,-122.9803926,0.47
5.362452,-0.5097,0.7504,-0.4016,-3.4277,2.2157,0.2782,0.8262,1.6438,-1.452,49.27365418,-122.9803926,0.47
5.367386,0.103,1.5573,0.1577,-3.4277,2.2157,0.2782,0.8262,1.6438,-1.452,49.27365418,-122.9803926,0.47
5.370512,1.5136,1.7074,1.4623,-3.4277,2.2157,0.2782,0.8262,1.6438,-1.452,49.27365418,-122.9803926,0.47
5.389563,1.5136,1.7074,1.4623,-3.4277,2.2157,0.2782,0.6591,2.5905,-1.7759,49.27365418,-122.9803926,0.47
5.392999,0.3757,0.8983,-0.2978,-3.4277,2.2157,0.2782,0.6591,2.5905,-1.7759,49.27365418,-122.9803926,0.47
5.395321,0.3757,0.8983,-0.2978,-5.8021,-0.5464,-2.6154,0.6591,2.5905,-1.7759,49.27365418,-122.9803926,0.47
5.3977,0.3757,0.8983,-0.2978,-5.8021,-0.5464,-2.6154,0.6591,2.5905,-1.7759,49.27365418,-122.9803926,0.47
5.430803,0.3757,0.8983,-0.2978,-5.8021,-0.5464,-2.6154,0.6591,2.5905,-1.7759,49.27365418,-122.9803926,0.47
5.436691,-0.9616,1.1005,-1.0118,-5.8021,-0.5464,-2.6154,0.6591,2.5905,-1.7759,49.27365418,-122.9803926,0.47
5.441285,-1.1262,1.4456,-0.5852,-5.8021,-0.5464,-2.6154,0.6591,2.5905,-1.7759,49.27365418,-122.9803926,0.47
5.459832,-1.1262,1.4456,-0.5852,-5.8021,-0.5464,-2.6154,1.3707,-0.146,-1.7985,49.27365418,-122.9803926,0.47
5.466114,-0.9127,0.721,-0.819,-5.8021,-0.5464,-2.6154,1.3707,-0.146,-1.7985,49.27365418,-122.9803926,0.47
5.471163,-0.9127,0.721,-0.819,3.195,4.0006,3.5016,1.3707,-0.146,-1.7985,49.27365418,-122.9803926,0.47
5.476104,-0.3456,0.7895,-0.6613,3.195,4.0006,3.5016,1.3707,-0.146,-1.7985,49.27365418,-122.9803926,0.47
5.480549,0.0974,1.0831,0.002,3.195,4.0006,3.5016,1.3707,-0.146,-1.7985,49.27365418,-122.9803926,0.47
5.483935,0.0974,1.0831,0.002,3.195,4.0006,3.5016,1.3707,-0.146,-1.7985,49.27365418,-122.9803926,0.47
5.525759,0.8257,1.0605,0.2908,3.195,4.0006,3.5016,1.3707,-0.146,-1.7985,49.27365418,-122.9803926,0.47
5.531813,0.1434,0.9631,-0.1906,3.195,4.0006,3.5016,1.3707,-0.146,-1.7985,49.27365418,-122.9803926,0.47
5.535817,0.1434,0.9631,-0.1906,-8.3148,0.9945,-5.621,1.3707,-0.146,-1.7985,49.27365418,-122.9803926,0.47
5.53961,0.1434,0.9631,-0.1906,-8.3148,0.9945,-5.621,0.6638,-0.4068,-1.2657,49.27365418,-122.9803926,0.47
5.542077,0.1434,0.9631,-0.1906,-8.3148,0.9945,-5.621,0.6638,-0.4068,-1.2657,49.27365418,-122.9803926,0.47
5.544237,-0.813,0.9279,-0.7278,-8.3148,0.9945,-5.621,0.6638,-0.4068,-1.2657,49.27365418,-122.9803926,0.47
5.565837,-0.5509,0.861,-0.5232,-8.3148,0.9945,-5.621,0.6638,-0.4068,-1.2657,49.27365418,-122.9803926,0.47
5.571156,-0.5509,0.861,-0.5232,-8.3148,0.9945,-5.621,0.6638,-0.4068,-1.2657,49.27365418,-122.9803926,0.47
5.57896,0.372,0.9397,-0.05,-8.3148,0.9945,-5.621,0.6638,-0.4068,-1.2657,49.27365418,-122.9803926,0.47
5.591983,0.372,0.9397,-0.05,-8.3148,0.9945,-5.621,0.3876,-0.6367,-0.9433,49.27365418,-122.9803926,0.47
5.59628,0.3495,0.9545,-0.0103,-8.3148,0.9945,-5.621,0.3876,-0.6367,-0.9433,49.27365418,-122.9803926,0.47
5.598894,0.3495,0.9545,-0.0103,2.4896,1.0616,1.2147,0.3876,-0.6367,-0.9433,49.27365418,-122.9803926,0.47
5.601017,0.3495,0.9545,-0.0103,2.4896,1.0616,1.2147,0.3876,-0.6367,-0.9433,49.27365418,-122.9803926,0.47
5.629926,-0.2276,0.9255,-0.2537,2.4896,1.0616,1.2147,0.3876,-0.6367,-0.9433,49.27365418,-122.9803926,0.47
5.63613,-0.2276,0.9255,-0.2537,2.4896,1.0616,1.2147,0.3876,-0.6367,-0.9433,49.27365418,-122.9803926,0.47
5.6603,-0.2276,0.9255,-0.2537,0.2624,0.0937,-0.649,0.3876,-0.6367,-0.9433,49.27365418,-122.9803926,0.47
5.667662,-0.3423,0.9081,-0.3596,0.2624,0.0937,-0.649,0.3876,-0.6367,-0.9433,49.27365418,-122.9803926,0.47
5.67231,-0.0083,0.9214,-0.2221,0.2624,0.0937,-0.649,0.3876,-0.6367,-0.9433,49.27365418,-122.9803926,0.47
5.679126,-0.0083,0.9214,-0.2221,0.2624,0.0937,-0.649,0.4003,-0.5823,-1.0751,49.27365418,-122.9803926,0.47
5.682329,-0.0083,0.9214,-0.2221,0.2624,0.0937,-0.649,0.4003,-0.5823,-1.0751,49.27365418,-122.9803926,0.47
5.684878,0.0357,0.9209,-0.1751,0.2624,0.0937,-0.649,0.4003,-0.5823,-1.0751,49.27365418,-122.9803926,0.47
5.724556,-0.0819,0.8662,-0.2383,0.2624,0.0937,-0.649,0.4003,-0.5823,-1.0751,49.27365418,-122.9803926,0.47
5.731764,-0.1813,0.847,-0.3368,0.2624,0.0937,-0.649,0.4003,-0.5823,-1.0751,49.27365418,-122.9803926,0.47
5.736937,-0.1813,0.847,-0.3368,0.2624,0.0937,-0.649,0.4143,-0.5027,-1.1887,49.27365418,-122.9803926,0.47
5.742144,-0.1413,0.9244,-0.3146,0.2624,0.0937,-0.649,0.4143,-0.5027,-1.1887,49.27365418,-122.9803926,0.47
5.746331,-0.1413,0.9244,-0.3146,0.3953,0.3245,-0.2644,0.4143,-0.5027,-1.1887,49.27365418,-122.9803926,0.47
5.750913,-0.1413,0.9244,-0.3146,0.3953,0.3245,-0.2644,0.4143,-0.5027,-1.1887,49.27365418,-122.9803926,0.47
5.763023,-0.1241,0.9842,-0.2513,0.3953,0.3245,-0.2644,0.4143,-0.5027,-1.1887,49.27365418,-122.9803926,0.47
5.769028,-0.1241,0.9842,-0.2513,0.3953,0.3245,-0.2644,0.4143,-0.5027,-1.1887,49.27365418,-122.9803926,0.47
5.790781,-0.1516,1.0017,-0.2111,0.3953,0.3245,-0.2644,0.4143,-0.5027,-1.1887,49.27365418,-122.9803926,0.47
5.79514,-0.1164,0.9937,-0.2047,0.3953,0.3245,-0.2644,0.4143,-0.5027,-1.1887,49.27365418,-122.9803926,0.47
5.798069,-0.1164,0.9937,-0.2047,0.3953,0.3245,-0.2644,0.4591,-0.5827,-1.4527,49.27365418,-122.9803926,0.47
5.800088,-0.1164,0.9937,-0.2047,1.6968,0.2697,-0.3064,0.4591,-0.5827,-1.4527,49.27365418,-122.9803926,0.47
5.802887,-0.1164,0.9937,-0.2047,1.6968,0.2697,-0.3064,0.4591,-0.5827,-1.4527,49.27365418,-122.9803926,0.47
5.816094,-0.081,0.9964,-0.2253,1.6968,0.2697,-0.3064,0.4591,-0.5827,-1.4527,49.27365418,-122.9803926,0.47
5.829891,-0.081,0.9964,-0.2253,1.6968,0.2697,-0.3064,0.4591,-0.5827,-1.4527,49.27365418,-122.9803926,0.47
5.838429,-0.1664,1.038,-0.2771,1.6968,0.2697,-0.3064,0.4591,-0.5827,-1.4527,49.27365418,-122.9803926,0.47
5.858405,-0.3088,1.0374,-0.2753,1.6968,0.2697,-0.3064,0.4591,-0.5827,-1.4527,49.27365418,-122.9803926,0.47
5.863758,-0.3088,1.0374,-0.2753,1.6968,0.2697,-0.3064,0.5418,-0.6641,-1.9269,49.27365418,-122.9803926,0.47
5.867858,-0.3088,1.0374,-0.2753,2.7429,1.8462,0.4197,0.5418,-0.6641,-1.9269,49.27365418,-122.9803926,0.47
5.871047,-0.2775,1.1009,-0.2915,2.7429,1.8462,0.4197,0.5418,-0.6641,-1.9269,49.27365418,-122.9803926,0.47
5.879242,-0.2775,1.1009,-0.2915,2.7429,1.8462,0.4197,0.5418,-0.6641,-1.9269,49.27365418,-122.9803926,0.47
5.924622,-0.1239,1.335,-0.367,2.7429,1.8462,0.4197,0.5418,-0.6641,-1.9269,49.27365418,-122.9803926,0.47
5.932879,0.0714,1.5677,-0.4107,2.7429,1.8462,0.4197,0.5418,-0.6641,-1.9269,49.27365418,-122.9803926,0.47
5.938407,-0.023,1.6466,-0.4971,2.7429,1.8462,0.4197,0.5418,-0.6641,-1.9269,49.27365418,-122.9803926,0.47
5.943418,-0.023,1.6466,-0.4971,2.9861,3.124,-0.196,0.5418,-0.6641,-1.9269,49.27365418,-122.9803926,0.47
5.947881,-0.023,1.6466,-0.4971,2.9861,3.124,-0.196,0.5255,-1.2341,-2.1424,49.27365418,-122.9803926,0.47
5.952328,-0.023,1.6466,-0.4971,2.9861,3.124,-0.196,0.5255,-1.2341,-2.1424,49.27365418,-122.9803926,0.47
5.96218,-0.023,1.6466,-0.4971,2.9861,3.124,-0.196,0.5255,-1.2341,-2.1424,49.27365418,-122.9803926,0.47
5.96728,0.0026,1.6883,-0.4929,2.9861,3.124,-0.196,0.5255,-1.2341,-2.1424,49.27365418,-122.9803926,0.47
5.97108,0.0584,1.1872,-0.3511,2.9861,3.124,-0.196,0.5255,-1.2341,-2.1424,49.27365418,-122.9803926,0.47
5.990895,-0.4963,1.0429,-0.1958,2.9861,3.124,-0.196,0.5255,-1.2341,-2.1424,49.27365418,-122.9803926,0.47
5.99859,-0.9105,0.9313,-0.5898,2.9861,3.124,-0.196,0.5255,-1.2341,-2.1424,49.27365418,-122.9803926,0.47
6.002426,-0.9105,0.9313,-0.5898,2.9861,3.124,-0.196,0.5255,-1.2341,-2.1424,49.27365418,-122.9803926,0.47
6.004931,-0.9105,0.9313,-0.5898,2.9861,3.124,-0.196,0.8405,-1.3423,-2.2359,49.27365418,-122.9803926,0.47
6.007705,-0.9105,0.9313,-0.5898,6.0406,8.9081,-1.9176,0.8405,-1.3423,-2.2359,49.27365418,-122.9803926,0.47
6.029483,-0.7346,0.6458,-0.6047,6.0406,8.9081,-1.9176,0.8405,-1.3423,-2.2359,49.27365418,-122.9803926,0.47
6.034796,-0.7346,0.6458,-0.6047,6.0406,8.9081,-1.9176,0.8405,-1.3423,-2.2359,49.27365418,-122.9803926,0.47
6.058403,-0.5077,0.3755,-0.2549,6.0406,8.9081,-1.9176,0.8405,-1.3423,-2.2359,49.27365418,-122.9803926,0.47
6.063883,-0.0465,0.2695,0.0472,6.0406,8.9081,-1.9176,0.8405,-1.3423,-2.2359,49.27365418,-122.9803926,0.47
6.068194,-0.0465,0.2695,0.0472,6.0406,8.9081,-1.9176,0.5966,-1.2335,-0.7281,49.27365418,-122.9803926,0.47
6.071767,-0.0465,0.2695,0.0472,3.0868,5.125,-1.7655,0.5966,-1.2335,-0.7281,49.27365418,-122.9803926,0.47
6.079507,-0.0465,0.2695,0.0472,3.0868,5.125,-1.7655,0.5966,-1.2335,-0.7281,49.27365418,-122.9803926,0.47
6.083614,0.0959,0.2788,0.2384,3.0868,5.125,-1.7655,0.5966,-1.2335,-0.7281,49.27365418,-122.9803926,0.47
6.101616,-0.0276,0.2132,0.1774,3.0868,5.125,-1.7655,0.5966,-1.2335,-0.7281,49.27365418,-122.9803926,0.47
6.124711,-0.2218,0.2607,-0.0257,3.0868,5.125,-1.7655,0.5966,-1.2335,-0.7281,49.27365418,-122.9803926,0.47
6.133871,-0.2868,0.3325,-0.0701,3.0868,5.125,-1.7655,0.5966,-1.2335,-0.7281,49.27365418,-122.9803926,0.47
6.138817,-0.2868,0.3325,-0.0701,3.0868,5.125,-1.7655,-0.2051,0.2318,2.081,49.27365418,-122.9803926,0.47
6.142051,-0.2868,0.3325,-0.0701,2.3094,-2.8179,0.1438,-0.2051,0.2318,2.081,49.27365418,-122.9803926,0.47
6.145096,-0.2868,0.3325,-0.0701,2.3094,-2.8179,0.1438,-0.2051,0.2318,2.081,49.27365418,-122.9803926,0.47
6.168713,-0.198,0.4476,-0.0356,2.3094,-2.8179,0.1438,-0.2051,0.2318,2.081,49.27365418,-122.9803926,0.47
6.172778,-0.198,0.4476,-0.0356,2.3094,-2.8179,0.1438,-0.2051,0.2318,2.081,49.27365418,-122.9803926,0.47
6.192587,-0.2813,0.5317,-0.0619,2.3094,-2.8179,0.1438,-0.2051,0.2318,2.081,49.27365418,-122.9803926,0.47
6.197774,-0.2813,0.5317,-0.0619,2.3094,-2.8179,0.1438,-0.2051,0.2318,2.081,49.27365418,-122.9803926,0.47
6.200761,-0.4197,0.6766,-0.106,2.3094,-2.8179,0.1438,-0.2051,0.2318,2.081,49.27365418,-122.9803926,0.47
6.203417,-0.4197,0.6766,-0.106,2.3094,-2.8179,0.1438,-0.9096,1.6305,4.4351,49.27365418,-122.9803926,0.47
6.20661,-0.4197,0.6766,-0.106,1.8643,-5.6377,2.6227,-0.9096,1.6305,4.4351,49.27365418,-122.9803926,0.47
6.228974,-0.534,0.8729,-0.2265,1.8643,-5.6377,2.6227,-0.9096,1.6305,4.4351,49.27365418,-122.9803926,0.47
6.232409,-0.534,0.8729,-0.2265,1.8643,-5.6377,2.6227,-0.9096,1.6305,4.4351,49.2736426,-122.9803933,0.54000002
6.259878,-0.4908,1.1192,-0.3028,1.8643,-5.6377,2.6227,-0.9096,1.6305,4.4351,49.2736426,-122.9803933,0.54000002
6.264617,-0.3658,1.1651,-0.172,1.8643,-5.6377,2.6227,-0.9096,1.6305,4.4351,49.2736426,-122.9803933,0.54000002
6.269081,-0.3658,1.1651,-0.172,-3.2401,-3.1859,0.4364,-0.9096,1.6305,4.4351,49.2736426,-122.9803933,0.54000002
6.272716,-0.4186,1.2552,-0.2574,-3.2401,-3.1859,0.4364,-0.9096,1.6305,4.4351,49.2736426,-122.9803933,0.54000002
6.277421,-0.4186,1.2552,-0.2574,-3.2401,-3.1859,0.4364,-1.6288,1.5859,5.2331,49.2736426,-122.9803933,0.54000002
6.279621,-0.4186,1.2552,-0.2574,-3.2401,-3.1859,0.4364,-1.6288,1.5859,5.2331,49.2736426,-122.9803933,0.54000002
6.315328,-0.5525,1.32,-0.3424,-3.2401,-3.1859,0.4364,-1.6288,1.5859,5.2331,49.2736426,-122.9803933,0.54000002
6.322305,-0.578,1.1414,-0.3495,-3.2401,-3.1859,0.4364,-1.6288,1.5859,5.2331,49.2736426,-122.9803933,0.54000002
6.338578,-0.4427,1.217,-0.1712,-3.2401,-3.1859,0.4364,-1.6288,1.5859,5.2331,49.2736426,-122.9803933,0.54000002
6.344642,-0.4427,1.217,-0.1712,-6.9612,2.5572,-2.1233,-1.6288,1.5859,5.2331,49.2736426,-122.9803933,0.54000002
6.348407,-0.4427,1.217,-0.1712,-6.9612,2.5572,-2.1233,-1.5112,1.0549,4.4546,49.2736426,-122.9803933,0.54000002
6.351212,-0.4427,1.217,-0.1712,-6.9612,2.5572,-2.1233,-1.5112,1.0549,4.4546,49.2736426,-122.9803933,0.54000002
6.361827,-0.2245,1.3206,-0.0599,-6.9612,2.5572,-2.1233,-1.5112,1.0549,4.4546,49.2736426,-122.9803933,0.54000002
6.366116,-0.2245,1.3206,-0.0599,-6.9612,2.5572,-2.1233,-1.5112,1.0549,4.4546,49.2736426,-122.9803933,0.54000002
6.391133,-0.0385,1.1934,0.072,-6.9612,2.5572,-2.1233,-1.5112,1.0549,4.4546,49.2736426,-122.9803933,0.54000002
6.395829,-0.0498,0.9377,0.1008,-6.9612,2.5572,-2.1233,-1.5112,1.0549,4.4546,49.2736426,-122.9803933,0.54000002
6.399144,-0.0498,0.9377,0.1008,-6.9612,2.5572,-2.1233,-1.5112,1.0549,4.4546,49.2736426,-122.9803933,0.54000002
6.404071,-0.0498,0.9377,0.1008,-8.2383,3.7522,-2.8428,-1.5112,1.0549,4.4546,49.2736426,-122.9803933,0.54000002
6.407078,-0.1661,0.9452,-0.0703,-8.2383,3.7522,-2.8428,-1.5112,1.0549,4.4546,49.2736426,-122.9803933,0.54000002
6.409557,-0.1661,0.9452,-0.0703,-8.2383,3.7522,-2.8428,-0.5432,1.5998,1.6691,49.2736426,-122.9803933,0.54000002
6.458666,-0.3368,0.8878,-0.271,-8.2383,3.7522,-2.8428,-0.5432,1.5998,1.6691,49.2736426,-122.9803933,0.54000002
6.464825,-0.4991,0.9737,-0.3771,-8.2383,3.7522,-2.8428,-0.5432,1.5998,1.6691,49.2736426,-122.9803933,0.54000002
6.478071,-0.4991,0.9737,-0.3771,-3.5189,1.7971,-0.1601,-0.5432,1.5998,1.6691,49.2736426,-122.9803933,0.54000002
6.482994,-0.4395,1.3671,-0.1633,-3.5189,1.7971,-0.1601,-0.5432,1.5998,1.6691,49.2736426,-122.9803933,0.54000002
6.486702,-0.4395,1.3671,-0.1633,-3.5189,1.7971,-0.1601,0.4377,1.5206,-1.2881,49.2736426,-122.9803933,0.54000002
6.489923,-0.4395,1.3671,-0.1633,-3.5189,1.7971,-0.1601,0.4377,1.5206,-1.2881,49.2736426,-122.9803933,0.54000002
6.501641,0.3753,1.309,0.4796,-3.5189,1.7971,-0.1601,0.4377,1.5206,-1.2881,49.2736426,-122.9803933,0.54000002
6.50456,0.3753,1.309,0.4796,-3.5189,1.7971,-0.1601,0.4377,1.5206,-1.2881,49.2736426,-122.9803933,0.54000002
6.523297,0.5905,1.335,-0.4737,-3.5189,1.7971,-0.1601,0.4377,1.5206,-1.2881,49.2736426,-122.9803933,0.54000002
6.526774,0.0497,1.5226,-0.2924,-3.5189,1.7971,-0.1601,0.4377,1.5206,-1.2881,49.2736426,-122.9803933,0.54000002
6.538418,0.0497,1.5226,-0.2924,-3.5189,1.7971,-0.1601,0.4377,1.5206,-1.2881,49.2736426,-122.9803933,0.54000002
6.54227,0.0497,1.5226,-0.2924,-3.5189,1.7971,-0.1601,1.0374,0.8301,-1.2215,49.2736426,-122.9803933,0.54000002
6.545514,-0.7528,0.8822,-0.1352,-3.5189,1.7971,-0.1601,1.0374,0.8301,-1.2215,49.2736426,-122.9803933,0.54000002
6.548978,-0.7528,0.8822,-0.1352,-5.1127,2.1071,-1.1958,1.0374,0.8301,-1.2215,49.2736426,-122.9803933,0.54000002
6.566258,-1.0864,0.6692,-0.4821,-5.1127,2.1071,-1.1958,1.0374,0.8301,-1.2215,49.2736426,-122.9803933,0.54000002
6.570559,-1.0864,0.6692,-0.4821,-5.1127,2.1071,-1.1958,1.0374,0.8301,-1.2215,49.2736426,-122.9803933,0.54000002
6.590407,-0.1007,1.0802,-0.1756,-5.1127,2.1071,-1.1958,1.0374,0.8301,-1.2215,49.2736426,-122.9803933,0.54000002
6.598998,-0.1007,1.0802,-0.1756,-5.1127,2.1071,-1.1958,1.0374,0.8301,-1.2215,49.2736426,-122.9803933,0.54000002
6.603242,0.4405,1.0575,0.0009,-5.1127,2.1071,-1.1958,1.0374,0.8301,-1.2215,49.2736426,-122.9803933,0.54000002
6.611251,0.4405,1.0575,0.0009,-5.1127,2.1071,-1.1958,0.7686,-0.957,-0.7045,49.2736426,-122.9803933,0.54000002
6.615995,0.4405,1.0575,0.0009,-0.7658,3.1345,-1.4287,0.7686,-0.957,-0.7045,49.2736426,-122.9803933,0.54000002
6.658776,0.2628,0.9396,-0.1011,-0.7658,3.1345,-1.4287,0.7686,-0.957,-0.7045,49.2736426,-122.9803933,0.54000002
6.664414,-0.1791,0.9627,-0.1884,-0.7658,3.1345,-1.4287,0.7686,-0.957,-0.7045,49.2736426,-122.9803933,0.54000002
6.668757,0.0166,0.9364,-0.1829,-0.7658,3.1345,-1.4287,0.7686,-0.957,-0.7045,49.2736426,-122.9803933,0.54000002
6.679067,0.0166,0.9364,-0.1829,-0.7658,3.1345,-1.4287,0.516,0.1828,-0.4911,49.2736426,-122.9803933,0.54000002
6.683879,0.5497,0.8815,-0.1007,-0.7658,3.1345,-1.4287,0.516,0.1828,-0.4911,49.2736426,-122.9803933,0.54000002
6.687262,0.5497,0.8815,-0.1007,-2.4817,0.1576,-0.9204,0.516,0.1828,-0.4911,49.2736426,-122.9803933,0.54000002
6.690767,0.5497,0.8815,-0.1007,-2.4817,0.1576,-0.9204,0.516,0.1828,-0.4911,49.2736426,-122.9803933,0.54000002
6.702368,0.6094,0.9052,-0.0856,-2.4817,0.1576,-0.9204,0.516,0.1828,-0.4911,49.2736426,-122.9803933,0.54000002
6.705301,0.6094,0.9052,-0.0856,-2.4817,0.1576,-0.9204,0.516,0.1828,-0.4911,49.2736426,-122.9803933,0.54000002
6.724122,0.2106,0.9714,-0.1203,-2.4817,0.1576,-0.9204,0.516,0.1828,-0.4911,49.2736426,-122.9803933,0.54000002
6.73774,0.2106,0.9714,-0.1203,-2.4817,0.1576,-0.9204,0.516,0.1828,-0.4911,49.2736426,-122.9803933,0.54000002
6.742274,-0.0288,0.945,-0.2067,-2.4817,0.1576,-0.9204,0.516,0.1828,-0.4911,49.2736426,-122.9803933,0.54000002
6.746097,-0.0288,0.945,-0.2067,-2.4817,0.1576,-0.9204,0.6024,-0.3343,-1.087,49.2736426,-122.9803933,0.54000002
6.75796,-0.0288,0.945,-0.2067,0.9753,0.0595,-0.0922,0.6024,-0.3343,-1.087,49.2736426,-122.9803933,0.54000002
6.77308,-0.0371,0.9442,-0.2138,0.9753,0.0595,-0.0922,0.6024,-0.3343,-1.087,49.2736426,-122.9803933,0.54000002
6.776351,-0.0371,0.9442,-0.2138,0.9753,0.0595,-0.0922,0.6024,-0.3343,-1.087,49.2736426,-122.9803933,0.54000002
6.790667,0.0702,0.9324,-0.1597,0.9753,0.0595,-0.0922,0.6024,-0.3343,-1.087,49.2736426,-122.9803933,0.54000002
6.79255,0.1314,0.9329,-0.1405,0.9753,0.0595,-0.0922,0.6024,-0.3343,-1.087,49.2736426,-122.9803933,0.54000002
6.797034,0.1314,0.9329,-0.1405,0.9753,0.0595,-0.0922,0.6024,-0.3343,-1.087,49.2736426,-122.9803933,0.54000002
6.810844,0.1314,0.9329,-0.1405,0.9753,0.0595,-0.0922,0.503,-0.2236,-1.1915,49.2736426,-122.9803933,0.54000002
6.813356,-0.0757,0.948,-0.2004,0.9753,0.0595,-0.0922,0.503,-0.2236,-1.1915,49.2736426,-122.9803933,0.54000002
6.815047,-0.0757,0.948,-0.2004,2.569,0.2486,0.24,0.503,-0.2236,-1.1915,49.2736426,-122.9803933,0.54000002
6.860487,-0.2958,0.9034,-0.2694,2.569,0.2486,0.24,0.503,-0.2236,-1.1915,49.2736426,-122.9803933,0.54000002
6.863536,-0.2183,0.9326,-0.2897,2.569,0.2486,0.24,0.503,-0.2236,-1.1915,49.2736426,-122.9803933,0.54000002
6.878628,-0.2183,0.9326,-0.2897,2.569,0.2486,0.24,0.4328,-0.3683,-1.1287,49.2736426,-122.9803933,0.54000002
6.88137,-0.2183,0.9326,-0.2897,1.451,0.3394,0.2581,0.4328,-0.3683,-1.1287,49.2736426,-122.9803933,0.54000002
6.883366,-0.0727,0.9794,-0.2946,1.451,0.3394,0.2581,0.4328,-0.3683,-1.1287,49.2736426,-122.9803933,0.54000002
6.88534,-0.0727,0.9794,-0.2946,1.451,0.3394,0.2581,0.4328,-0.3683,-1.1287,49.2736426,-122.9803933,0.54000002
6.895825,-0.0537,0.9779,-0.2775,1.451,0.3394,0.2581,0.4328,-0.3683,-1.1287,49.2736426,-122.9803933,0.54000002
6.900914,-0.0537,0.9779,-0.2775,1.451,0.3394,0.2581,0.4328,-0.3683,-1.1287,49.2736426,-122.9803933,0.54000002
6.924107,-0.0612,0.9529,-0.2449,1.451,0.3394,0.2581,0.4328,-0.3683,-1.1287,49.2736426,-122.9803933,0.54000002
6.93784,-0.0612,0.9529,-0.2449,1.451,0.3394,0.2581,0.4328,-0.3683,-1.1287,49.2736426,-122.9803933,0.54000002
6.94202,-0.1312,0.9657,-0.2504,1.451,0.3394,0.2581,0.4328,-0.3683,-1.1287,49.2736426,-122.9803933,0.54000002
6.946108,-0.1312,0.9657,-0.2504,1.451,0.3394,0.2581,0.3523,-0.6936,-1.1571,49.2736426,-122.9803933,0.54000002
6.949746,-0.1312,0.9657,-0.2504,0.2053,0.5586,-0.6471,0.3523,-0.6936,-1.1571,49.2736426,-122.9803933,0.54000002
6.952926,-0.1455,1.0054,-0.2837,0.2053,0.5586,-0.6471,0.3523,-0.6936,-1.1571,49.2736426,-122.9803933,0.54000002
6.962233,-0.1455,1.0054,-0.2837,0.2053,0.5586,-0.6471,0.3523,-0.6936,-1.1571,49.2736426,-122.9803933,0.54000002
6.990975,-0.062,1.1187,-0.265,0.2053,0.5586,-0.6471,0.3523,-0.6936,-1.1571,49.2736426,-122.9803933,0.54000002
6.996347,-0.0302,1.1675,-0.2229,0.2053,0.5586,-0.6471,0.3523,-0.6936,-1.1571,49.2736426,-122.9803933,0.54000002
7.001145,-0.0302,1.1675,-0.2229,0.2053,0.5586,-0.6471,0.3523,-0.6936,-1.1571,49.2736426,-122.9803933,0.54000002
7.014315,-0.0652,1.1699,-0.2137,0.2053,0.5586,-0.6471,0.3523,-0.6936,-1.1571,49.2736426,-122.9803933,0.54000002
7.020431,-0.0652,1.1699,-0.2137,1.8053,1.1124,-0.4197,0.3523,-0.6936,-1.1571,49.2736426,-122.9803933,0.54000002
7.023458,-0.0652,1.1699,-0.2137,1.8053,1.1124,-0.4197,0.3557,-0.7348,-1.474,49.2736426,-122.9803933,0.54000002
7.058218,-0.0434,1.2003,-0.2312,1.8053,1.1124,-0.4197,0.3557,-0.7348,-1.474,49.2736426,-122.9803933,0.54000002
7.065146,0.0393,1.2523,-0.2077,1.8053,1.1124,-0.4197,0.3557,-0.7348,-1.474,49.2736426,-122.9803933,0.54000002
7.070821,0.1462,1.4311,-0.2016,1.8053,1.1124,-0.4197,0.3557,-0.7348,-1.474,49.2736426,-122.9803933,0.54000002
7.081959,0.1462,1.4311,-0.2016,1.8053,1.1124,-0.4197,0.3557,-0.7348,-1.474,49.2736426,-122.9803933,0.54000002
7.087884,0.3489,1.6405,-0.1815,1.8053,1.1124,-0.4197,0.3557,-0.7348,-1.474,49.2736426,-122.9803933,0.54000002
7.091313,0.3489,1.6405,-0.1815,1.8053,1.1124,-0.4197,0.4082,-0.897,-2.0532,49.2736426,-122.9803933,0.54000002
7.095148,0.3489,1.6405,-0.1815,3.5436,3.405,-0.0816,0.4082,-0.897,-2.0532,49.2736426,-122.9803933,0.54000002
7.098558,0.3489,1.6405,-0.1815,3.5436,3.405,-0.0816,0.4082,-0.897,-2.0532,49.2736426,-122.9803933,0.54000002
7.104269,0.5294,1.517,-0.0684,3.5436,3.405,-0.0816,0.4082,-0.897,-2.0532,49.2736426,-122.9803933,0.54000002
7.123908,0.2834,1.3944,-0.1093,3.5436,3.405,-0.0816,0.4082,-0.897,-2.0532,49.2736426,-122.9803933,0.54000002
7.138107,0.2834,1.3944,-0.1093,3.5436,3.405,-0.0816,0.4082,-0.897,-2.0532,49.2736426,-122.9803933,0.54000002
7.148955,0.2834,1.3944,-0.1093,3.5436,3.405,-0.0816,0.8818,-1.2898,-2.5633,49.2736426,-122.9803933,0.54000002
7.154126,0.2834,1.3944,-0.1093,6.8694,6.702,0.2453,0.8818,-1.2898,-2.5633,49.2736426,-122.9803933,0.54000002
7.157917,-0.0673,1.3417,-0.4116,6.8694,6.702,0.2453,0.8818,-1.2898,-2.5633,49.2736426,-122.9803933,0.54000002
7.164754,-0.7377,1.0864,-0.5402,6.8694,6.702,0.2453,0.8818,-1.2898,-2.5633,49.2736426,-122.9803933,0.54000002
7.169759,-0.7377,1.0864,-0.5402,6.8694,6.702,0.2453,0.8818,-1.2898,-2.5633,49.2736426,-122.9803933,0.54000002
7.190467,-0.8544,0.7972,-0.7222,6.8694,6.702,0.2453,0.8818,-1.2898,-2.5633,49.2736426,-122.9803933,0.54000002
7.197852,-0.8544,0.7972,-0.7222,6.8694,6.702,0.2453,0.8818,-1.2898,-2.5633,49.2736426,-122.9803933,0.54000002
7.20104,-0.8649,0.42,-0.5529,6.8694,6.702,0.2453,0.8818,-1.2898,-2.5633,49.2736426,-122.9803933,0.54000002
7.218501,-0.7779,0.2228,-0.425,6.8694,6.702,0.2453,0.8818,-1.2898,-2.5633,49.2736426,-122.9803933,0.54000002
7.223905,-0.7779,0.2228,-0.425,7.5419,7.2645,0.1408,0.8818,-1.2898,-2.5633,49.2736426,-122.9803933,0.54000002
7.227204,-0.7779,0.2228,-0.425,7.5419,7.2645,0.1408,0.989,-0.5379,-1.9164,49.2736426,-122.9803933,0.54000002
7.258202,-0.1706,0.1376,-0.1436,7.5419,7.2645,0.1408,0.989,-0.5379,-1.9164,49.2736426,-122.9803933,0.54000002
7.262735,0.1289,0.0996,0.2002,7.5419,7.2645,0.1408,0.989,-0.5379,-1.9164,49.27365344,-122.9803577,0.52999997
7.279059,0.1289,0.0996,0.2002,7.5419,7.2645,0.1408,0.989,-0.5379,-1.9164,49.27365344,-122.9803577,0.52999997
7.284707,0.1165,0.1329,0.2771,7.5419,7.2645,0.1408,0.989,-0.5379,-1.9164,49.27365344,-122.9803577,0.52999997
7.289321,0.1165,0.1329,0.2771,7.5419,7.2645,0.1408,0.21,-1.742,1.3457,49.27365344,-122.9803577,0.52999997
7.293045,0.1165,0.1329,0.2771,-2.3211,-1.3659,-3.7335,0.21,-1.742,1.3457,49.27365344,-122.9803577,0.52999997
7.297739,0.1165,0.1329,0.2771,-2.3211,-1.3659,-3.7335,0.21,-1.742,1.3457,49.27365344,-122.9803577,0.52999997
7.300613,-0.0283,0.3008,0.1767,-2.3211,-1.3659,-3.7335,0.21,-1.742,1.3457,49.27365344,-122.9803577,0.52999997
7.318194,-0.1506,0.4447,0.0731,-2.3211,-1.3659,-3.7335,0.21,-1.742,1.3457,49.27365344,-122.9803577,0.52999997
7.337267,-0.1659,0.5294,-0.0349,-2.3211,-1.3659,-3.7335,0.21,-1.742,1.3457,49.27365344,-122.9803577,0.52999997
7.341259,-0.1659,0.5294,-0.0349,-2.3211,-1.3659,-3.7335,0.21,-1.742,1.3457,49.27365344,-122.9803577,0.52999997
7.351847,-0.1659,0.5294,-0.0349,-2.3211,-1.3659,-3.7335,-0.4853,1.8057,3.471,49.27365344,-122.9803577,0.52999997
7.356382,-0.1659,0.5294,-0.0349,4.0984,-6.5308,3.3513,-0.4853,1.8057,3.471,49.27365344,-122.9803577,0.52999997
7.358741,-0.2444,0.6401,-0.104,4.0984,-6.5308,3.3513,-0.4853,1.8057,3.471,49.27365344,-122.9803577,0.52999997
7.368186,-0.2444,0.6401,-0.104,4.0984,-6.5308,3.3513,-0.4853,1.8057,3.471,49.27365344,-122.9803577,0.52999997
7.391454,-0.3679,0.7906,-0.1426,4.0984,-6.5308,3.3513,-0.4853,1.8057,3.471,49.27365344,-122.9803577,0.52999997
7.393957,-0.5311,1.009,-0.2672,4.0984,-6.5308,3.3513,-0.4853,1.8057,3.471,49.27365344,-122.9803577,0.52999997
7.397152,-0.5311,1.009,-0.2672,4.0984,-6.5308,3.3513,-0.4853,1.8057,3.471,49.27365344,-122.9803577,0.52999997
7.420263,-0.5304,1.2203,-0.3426,4.0984,-6.5308,3.3513,-0.4853,1.8057,3.471,49.27365344,-122.9803577,0.52999997
7.423033,-0.5304,1.2203,-0.3426,4.0984,-6.5308,3.3513,-1.406,2.0718,4.7049,49.27365344,-122.9803577,0.52999997
7.424941,-0.5304,1.2203,-0.3426,-0.7595,-3.807,1.7094,-1.406,2.0718,4.7049,49.27365344,-122.9803577,0.52999997
7.459388,-0.351,1.2926,-0.2119,-0.7595,-3.807,1.7094,-1.406,2.0718,4.7049,49.27365344,-122.9803577,0.52999997
7.462248,-0.3859,1.3492,-0.3015,-0.7595,-3.807,1.7094,-1.406,2.0718,4.7049,49.27365344,-122.9803577,0.52999997
7.4813,-0.3859,1.3492,-0.3015,-0.7595,-3.807,1.7094,-1.406,2.0718,4.7049,49.27365344,-122.9803577,0.52999997
7.487962,-0.4379,1.2816,-0.3334,-0.7595,-3.807,1.7094,-1.406,2.0718,4.7049,49.27365344,-122.9803577,0.52999997
7.493701,-0.4379,1.2816,-0.3334,-0.7595,-3.807,1.7094,-1.7482,0.9862,4.6821,49.27365344,-122.9803577,0.52999997
7.498696,-0.4379,1.2816,-0.3334,-6.3839,1.4711,-1.7988,-1.7482,0.9862,4.6821,49.27365344,-122.9803577,0.52999997
7.502487,-0.382,1.1482,-0.2968,-6.3839,1.4711,-1.7988,-1.7482,0.9862,4.6821,49.27365344,-122.9803577,0.52999997
7.505544,-0.382,1.1482,-0.2968,-6.3839,1.4711,-1.7988,-1.7482,0.9862,4.6821,49.27365344,-122.9803577,0.52999997
7.523897,-0.2184,1.1105,-0.1478,-6.3839,1.4711,-1.7988,-1.7482,0.9862,4.6821,49.27365344,-122.9803577,0.52999997
7.537953,-0.2184,1.1105,-0.1478,-6.3839,1.4711,-1.7988,-1.7482,0.9862,4.6821,49.27365344,-122.9803577,0.52999997
7.543365,-0.0933,1.1566,-0.0658,-6.3839,1.4711,-1.7988,-1.7482,0.9862,4.6821,49.27365344,-122.9803577,0.52999997
7.556854,-0.0677,1.1337,-0.0056,-6.3839,1.4711,-1.7988,-1.7482,0.9862,4.6821,49.27365344,-122.9803577,0.52999997
7.562336,-0.0677,1.1337,-0.0056,-6.3839,1.4711,-1.7988,-1.131,0.2636,3.2828,49.27365344,-122.9803577,0.52999997
7.565972,-0.0677,1.1337,-0.0056,-7.5191,4.1383,-2.9192,-1.131,0.2636,3.2828,49.27365344,-122.9803577,0.52999997
7.579268,-0.1085,0.962,0.0331,-7.5191,4.1383,-2.9192,-1.131,0.2636,3.2828,49.27365344,-122.9803577,0.52999997
7.590561,-0.0494,0.9547,-0.0273,-7.5191,4.1383,-2.9192,-1.131,0.2636,3.2828,49.27365344,-122.9803577,0.52999997
7.598563,-0.0494,0.9547,-0.0273,-7.5191,4.1383,-2.9192,-1.131,0.2636,3.2828,49.27365344,-122.9803577,0.52999997
7.622825,-0.0494,0.9547,-0.0273,-7.5191,4.1383,-2.9192,0.1187,0.7611,-0.0189,49.27365344,-122.9803577,0.52999997
7.627258,-0.0937,0.9453,-0.2038,-7.5191,4.1383,-2.9192,0.1187,0.7611,-0.0189,49.27365344,-122.9803577,0.52999997
7.630771,-0.2978,0.8885,-0.3273,-7.5191,4.1383,-2.9192,0.1187,0.7611,-0.0189,49.27365344,-122.9803577,0.52999997
7.633726,-0.2978,0.8885,-0.3273,-4.7795,2.6083,-0.7271,0.1187,0.7611,-0.0189,49.27365344,-122.9803577,0.52999997
7.636592,-0.2978,0.8885,-0.3273,-4.7795,2.6083,-0.7271,0.1187,0.7611,-0.0189,49.27365344,-122.9803577,0.52999997
7.657568,-0.4136,0.9045,-0.3779,-4.7795,2.6083,-0.7271,0.1187,0.7611,-0.0189,49.27365344,-122.9803577,0.52999997
7.677413,-0.4136,0.9045,-0.3779,-4.7795,2.6083,-0.7271,0.1187,0.7611,-0.0189,49.27365344,-122.9803577,0.52999997
7.681451,-0.3797,1.2304,-0.3059,-4.7795,2.6083,-0.7271,0.1187,0.7611,-0.0189,49.27365344,-122.9803577,0.52999997
7.690144,-0.3797,1.2304,-0.3059,-4.7795,2.6083,-0.7271,0.5041,0.1498,-1.1215,49.27365344,-122.9803577,0.52999997
7.693629,0.4992,1.6333,0.8838,-4.7795,2.6083,-0.7271,0.5041,0.1498,-1.1215,49.27365344,-122.9803577,0.52999997
7.697956,0.4992,1.6333,0.8838,-4.2259,0.5537,-1.3752,0.5041,0.1498,-1.1215,49.27365344,-122.9803577,0.52999997
7.700385,0.4992,1.6333,0.8838,-4.2259,0.5537,-1.3752,0.5041,0.1498,-1.1215,49.27365344,-122.9803577,0.52999997
7.724592,0.835,0.9729,0.531,-4.2259,0.5537,-1.3752,0.5041,0.1498,-1.1215,49.27365344,-122.9803577,0.52999997
7.729434,0.027,1.1326,-0.2533,-4.2259,0.5537,-1.3752,0.5041,0.1498,-1.1215,49.27365344,-122.9803577,0.52999997
7.738149,0.027,1.1326,-0.2533,-4.2259,0.5537,-1.3752,0.5041,0.1498,-1.1215,49.27365344,-122.9803577,0.52999997
7.760114,-0.2199,1.3859,-0.4684,-4.2259,0.5537,-1.3752,0.5041,0.1498,-1.1215,49.27365344,-122.9803577,0.52999997
7.767102,-0.2199,1.3859,-0.4684,-4.2259,0.5537,-1.3752,0.9509,2.0421,-1.1342,49.27365344,-122.9803577,0.52999997
7.772222,-0.6385,0.8881,-0.4377,-4.2259,0.5537,-1.3752,0.9509,2.0421,-1.1342,49.27365344,-122.9803577,0.52999997
7.777418,-0.6385,0.8881,-0.4377,-1.8368,3.1741,2.1688,0.9509,2.0421,-1.1342,49.27365344,-122.9803577,0.52999997
7.79079,-0.46,0.8526,-0.4453,-1.8368,3.1741,2.1688,0.9509,2.0421,-1.1342,49.27365344,-122.9803577,0.52999997
7.798073,-0.46,0.8526,-0.4453,-1.8368,3.1741,2.1688,0.9509,2.0421,-1.1342,49.27365344,-122.9803577,0.52999997
7.802279,0.2575,1.079,-0.164,-1.8368,3.1741,2.1688,0.9509,2.0421,-1.1342,49.27365344,-122.9803577,0.52999997
7.818119,0.5481,0.9043,0.1292,-1.8368,3.1741,2.1688,0.9509,2.0421,-1.1342,49.27365344,-122.9803577,0.52999997
7.825607,0.5481,0.9043,0.1292,-2.7434,1.9475,-2.0915,0.9509,2.0421,-1.1342,49.27365344,-122.9803577,0.52999997
7.829489,0.5481,0.9043,0.1292,-2.7434,1.9475,-2.0915,0.8231,-1.1215,-0.8344,49.27365344,-122.9803577,0.52999997
7.833707,0.5481,0.9043,0.1292,-2.7434,1.9475,-2.0915,0.8231,-1.1215,-0.8344,49.27365344,-122.9803577,0.52999997
7.858342,0.2993,0.8676,0.0328,-2.7434,1.9475,-2.0915,0.8231,-1.1215,-0.8344,49.27365344,-122.9803577,0.52999997
7.862754,0.0671,0.9836,-0.1921,-2.7434,1.9475,-2.0915,0.8231,-1.1215,-0.8344,49.27365344,-122.9803577,0.52999997
7.881,0.0671,0.9836,-0.1921,-2.7434,1.9475,-2.0915,0.8231,-1.1215,-0.8344,49.27365344,-122.9803577,0.52999997
7.886058,0.0678,1.0211,-0.35,-2.7434,1.9475,-2.0915,0.8231,-1.1215,-0.8344,49.27365344,-122.9803577,0.52999997
7.895973,0.0678,1.0211,-0.35,-2.7434,1.9475,-2.0915,0.742,-0.2891,-0.9992,49.27365344,-122.9803577,0.52999997
7.901096,0.1063,0.9347,-0.3028,-2.7434,1.9475,-2.0915,0.742,-0.2891,-0.9992,49.27365344,-122.9803577,0.52999997
7.903602,0.1063,0.9347,-0.3028,0.5286,0.1845,0.2109,0.742,-0.2891,-0.9992,49.27365344,-122.9803577,0.52999997
7.906614,0.1063,0.9347,-0.3028,0.5286,0.1845,0.2109,0.742,-0.2891,-0.9992,49.27365344,-122.9803577,0.52999997
7.923788,0.2084,0.9606,-0.105,0.5286,0.1845,0.2109,0.742,-0.2891,-0.9992,49.27365344,-122.9803577,0.52999997
7.938258,0.2084,0.9606,-0.105,0.5286,0.1845,0.2109,0.742,-0.2891,-0.9992,49.27365344,-122.9803577,0.52999997
7.942058,0.1335,0.9356,-0.132,0.5286,0.1845,0.2109,0.742,-0.2891,-0.9992,49.27365344,-122.9803577,0.52999997
7.961793,0.1335,0.9356,-0.132,0.5286,0.1845,0.2109,0.5426,-0.7923,-1.1351,49.27365344,-122.9803577,0.52999997
7.967152,-0.0017,0.9544,-0.248,0.5286,0.1845,0.2109,0.5426,-0.7923,-1.1351,49.27365344,-122.9803577,0.52999997
7.97033,-0.0017,0.9544,-0.248,0.7806,0.5644,-0.5775,0.5426,-0.7923,-1.1351,49.27365344,-122.9803577,0.52999997
7.991154,-0.1082,0.9399,-0.3216,0.7806,0.5644,-0.5775,0.5426,-0.7923,-1.1351,49.27365344,-122.9803577,0.52999997
7.995527,-0.0627,0.9414,-0.2682,0.7806,0.5644,-0.5775,0.5426,-0.7923,-1.1351,49.27365344,-122.9803577,0.52999997
7.999914,-0.0627,0.9414,-0.2682,0.7806,0.5644,-0.5775,0.5426,-0.7923,-1.1351,49.27365344,-122.9803577,0.52999997
8.030972,0.0126,0.9453,-0.1871,0.7806,0.5644,-0.5775,0.5426,-0.7923,-1.1351,49.27365344,-122.9803577,0.52999997
8.038055,0.0126,0.9453,-0.1871,0.7806,0.5644,-0.5775,0.4097,-0.8596,-1.0841,49.27365344,-122.9803577,0.52999997
8.043753,-0.0017,0.9388,-0.1747,0.7806,0.5644,-0.5775,0.4097,-0.8596,-1.0841,49.27365344,-122.9803577,0.52999997
8.049532,-0.0017,0.9388,-0.1747,0.7806,0.5644,-0.5775,0.4097,-0.8596,-1.0841,49.27365344,-122.9803577,0.52999997
8.054194,-0.0017,0.9388,-0.1747,1.3552,0.4374,0.2309,0.4097,-0.8596,-1.0841,49.27365344,-122.9803577,0.52999997
8.059423,-0.0627,0.9323,-0.2296,1.3552,0.4374,0.2309,0.4097,-0.8596,-1.0841,49.27365344,-122.9803577,0.52999997
8.079522,-0.1148,0.8959,-0.2756,1.3552,0.4374,0.2309,0.4097,-0.8596,-1.0841,49.27365344,-122.9803577,0.52999997
8.084611,-0.1148,0.8959,-0.2756,1.3552,0.4374,0.2309,0.4097,-0.8596,-1.0841,49.27365344,-122.9803577,0.52999997
8.098441,-0.1148,0.8959,-0.2756,1.3552,0.4374,0.2309,0.4097,-0.8596,-1.0841,49.27365344,-122.9803577,0.52999997
8.102251,-0.1769,0.8979,-0.3076,1.3552,0.4374,0.2309,0.4097,-0.8596,-1.0841,49.27365344,-122.9803577,0.52999997
8.105228,-0.1769,0.8979,-0.3076,0.9771,0.4738,0.0039,0.4097,-0.8596,-1.0841,49.27365344,-122.9803577,0.52999997
8.108232,-0.1769,0.8979,-0.3076,0.9771,0.4738,0.0039,0.3609,-0.6706,-1.1273,49.27365344,-122.9803577,0.52999997
8.124123,-0.1839,0.954,-0.2738,0.9771,0.4738,0.0039,0.3609,-0.6706,-1.1273,49.27365344,-122.9803577,0.52999997
8.138488,-0.1839,0.954,-0.2738,0.9771,0.4738,0.0039,0.3609,-0.6706,-1.1273,49.27365344,-122.9803577,0.52999997
8.142985,-0.111,0.9635,-0.2777,0.9771,0.4738,0.0039,0.3609,-0.6706,-1.1273,49.27365344,-122.9803577,0.52999997
8.165259,-0.111,0.9635,-0.2777,0.9771,0.4738,0.0039,0.2816,-0.9381,-1.1799,49.27365344,-122.9803577,0.52999997
8.170672,0.0675,0.941,-0.2494,0.9771,0.4738,0.0039,0.2816,-0.9381,-1.1799,49.27365344,-122.9803577,0.52999997
8.176815,0.0675,0.941,-0.2494,0.8622,0.3821,-0.4104,0.2816,-0.9381,-1.1799,49.27365344,-122.9803577,0.52999997
8.180743,0.0093,0.9715,-0.3172,0.8622,0.3821,-0.4104,0.2816,-0.9381,-1.1799,49.27365344,-122.9803577,0.52999997
8.191463,-0.2152,0.95,-0.3286,0.8622,0.3821,-0.4104,0.2816,-0.9381,-1.1799,49.27365344,-122.9803577,0.52999997
8.197007,-0.2152,0.95,-0.3286,0.8622,0.3821,-0.4104,0.2816,-0.9381,-1.1799,49.27365344,-122.9803577,0.52999997
8.237585,-0.2712,1.0101,-0.305,0.8622,0.3821,-0.4104,0.2816,-0.9381,-1.1799,49.27365344,-122.9803577,0.52999997
8.241254,-0.1228,1.1156,-0.2149,0.8622,0.3821,-0.4104,0.2816,-0.9381,-1.1799,49.27366317,-122.9803661,0.73000002
8.243473,-0.1228,1.1156,-0.2149,0.8622,0.3821,-0.4104,0.2816,-0.9381,-1.1799,49.27366317,-122.9803661,0.73000002
8.245296,-0.1228,1.1156,-0.2149,0.8622,0.3821,-0.4104,0.2785,-0.6996,-1.4088,49.27366317,-122.9803661,0.73000002
8.247364,-0.1228,1.1156,-0.2149,2.6259,1.092,-0.3934,0.2785,-0.6996,-1.4088,49.27366317,-122.9803661,0.73000002
8.258207,-0.0033,1.1939,-0.1172,2.6259,1.092,-0.3934,0.2785,-0.6996,-1.4088,49.27366317,-122.9803661,0.73000002
8.281083,-0.0033,1.1939,-0.1172,2.6259,1.092,-0.3934,0.2785,-0.6996,-1.4088,49.27366317,-122.9803661,0.73000002
8.284983,0.0248,1.2125,-0.1258,2.6259,1.092,-0.3934,0.2785,-0.6996,-1.4088,49.27366317,-122.9803661,0.73000002
8.296616,0.1539,1.2811,-0.1529,2.6259,1.092,-0.3934,0.2785,-0.6996,-1.4088,49.27366317,-122.9803661,0.73000002
8.301196,0.1539,1.2811,-0.1529,2.6259,1.092,-0.3934,0.2785,-0.6996,-1.4088,49.27366317,-122.9803661,0.73000002
8.303426,0.1539,1.2811,-0.1529,2.6259,1.092,-0.3934,0.3923,-0.9609,-1.9625,49.27366317,-122.9803661,0.73000002
8.305371,0.1539,1.2811,-0.1529,2.4443,2.4668,-0.2492,0.3923,-0.9609,-1.9625,49.27366317,-122.9803661,0.73000002
8.307517,0.3586,1.4529,-0.1408,2.4443,2.4668,-0.2492,0.3923,-0.9609,-1.9625,49.27366317,-122.9803661,0.73000002
8.32498,0.614,1.6854,-0.1095,2.4443,2.4668,-0.2492,0.3923,-0.9609,-1.9625,49.27366317,-122.9803661,0.73000002
8.339232,0.614,1.6854,-0.1095,2.4443,2.4668,-0.2492,0.3923,-0.9609,-1.9625,49.27366317,-122.9803661,0.73000002
8.368528,0.5836,1.5769,-0.0786,2.4443,2.4668,-0.2492,0.3923,-0.9609,-1.9625,49.27366317,-122.9803661,0.73000002
8.37523,0.2969,1.469,-0.336,2.4443,2.4668,-0.2492,0.3923,-0.9609,-1.9625,49.27366317,-122.9803661,0.73000002
8.380666,0.2969,1.469,-0.336,2.4443,2.4668,-0.2492,0.8654,-0.7712,-2.8795,49.27366317,-122.9803661,0.73000002
8.384456,0.2969,1.469,-0.336,7.0886,5.927,1.1388,0.8654,-0.7712,-2.8795,49.27366317,-122.9803661,0.73000002
8.395039,-0.6211,1.2935,-0.84,7.0886,5.927,1.1388,0.8654,-0.7712,-2.8795,49.27366317,-122.9803661,0.73000002
8.401083,-0.6211,1.2935,-0.84,7.0886,5.927,1.1388,0.8654,-0.7712,-2.8795,49.27366317,-122.9803661,0.73000002
8.40484,-1.0044,0.9197,-0.9399,7.0886,5.927,1.1388,0.8654,-0.7712,-2.8795,49.27366317,-122.9803661,0.73000002
8.429526,-1.1481,0.432,-0.7718,7.0886,5.927,1.1388,0.8654,-0.7712,-2.8795,49.27366317,-122.9803661,0.73000002
8.434349,-1.1481,0.432,-0.7718,7.0886,5.927,1.1388,0.8654,-0.7712,-2.8795,49.27366317,-122.9803661,0.73000002
8.437805,-1.1481,0.432,-0.7718,7.0886,5.927,1.1388,0.8642,0.3628,-2.5323,49.27366317,-122.9803661,0.73000002
8.440326,-0.9049,0.2021,-0.5635,7.0886,5.927,1.1388,0.8642,0.3628,-2.5323,49.27366317,-122.9803661,0.73000002
8.442702,-0.9049,0.2021,-0.5635,10.0292,9.3947,0.3791,0.8642,0.3628,-2.5323,49.27366317,-122.9803661,0.73000002
8.459232,-0.2657,0.0392,-0.1239,10.0292,9.3947,0.3791,0.8642,0.3628,-2.5323,49.27366317,-122.9803661,0.73000002
8.477156,-0.2657,0.0392,-0.1239,10.0292,9.3947,0.3791,0.8642,0.3628,-2.5323,49.27366317,-122.9803661,0.73000002
8.481268,0.2669,-0.1282,0.0741,10.0292,9.3947,0.3791,0.8642,0.3628,-2.5323,49.27366317,-122.9803661,0.73000002
8.502346,0.2669,-0.1282,0.0741,10.0292,9.3947,0.3791,-0.0765,-2.0589,1.2063,49.27366317,-122.9803661,0.73000002
8.503922,0.2669,-0.1282,0.0741,-3.4027,-0.2156,-5.4603,-0.0765,-2.0589,1.2063,49.27366317,-122.9803661,0.73000002
8.504807,0.4963,0.0295,0.2424,-3.4027,-0.2156,-5.4603,-0.0765,-2.0589,1.2063,49.27366317,-122.9803661,0.73000002
8.524686,0.1029,0.3069,0.045,-3.4027,-0.2156,-5.4603,-0.0765,-2.0589,1.2063,49.27366317,-122.9803661,0.73000002
8.537502,0.1029,0.3069,0.045,-3.4027,-0.2156,-5.4603,-0.0765,-2.0589,1.2063,49.27366317,-122.9803661,0.73000002
8.540329,-0.2345,0.4738,-0.0957,-3.4027,-0.2156,-5.4603,-0.0765,-2.0589,1.2063,49.27366317,-122.9803661,0.73000002
8.565599,-0.2553,0.5528,-0.1304,-3.4027,-0.2156,-5.4603,-0.0765,-2.0589,1.2063,49.27366317,-122.9803661,0.73000002
8.568574,-0.2553,0.5528,-0.1304,-3.4027,-0.2156,-5.4603,-0.0765,-2.0589,1.2063,49.27366317,-122.9803661,0.73000002
8.571992,-0.2753,0.667,-0.2373,-3.4027,-0.2156,-5.4603,-0.0765,-2.0589,1.2063,49.27366317,-122.9803661,0.73000002
8.574339,-0.2753,0.667,-0.2373,-3.4027,-0.2156,-5.4603,-0.7379,1.587,3.5318,49.27366317,-122.9803661,0.73000002
8.576484,-0.2753,0.667,-0.2373,6.0124,-7.3886,2.9766,-0.7379,1.587,3.5318,49.27366317,-122.9803661,0.73000002
8.591047,-0.3712,0.8204,-0.3318,6.0124,-7.3886,2.9766,-0.7379,1.587,3.5318,49.27366317,-122.9803661,0.73000002
8.597389,-0.3712,0.8204,-0.3318,6.0124,-7.3886,2.9766,-0.7379,1.587,3.5318,49.27366317,-122.9803661,0.73000002
8.630193,-0.4221,1.0495,-0.3688,6.0124,-7.3886,2.9766,-0.7379,1.587,3.5318,49.27366317,-122.9803661,0.73000002
8.637287,-0.4221,1.0495,-0.3688,6.0124,-7.3886,2.9766,-0.7379,1.587,3.5318,49.27366317,-122.9803661,0.73000002
8.642606,-0.4221,1.0495,-0.3688,6.0124,-7.3886,2.9766,-1.5519,1.8761,4.8526,49.27366317,-122.9803661,0.73000002
8.649924,-0.4866,1.2125,-0.4855,6.0124,-7.3886,2.9766,-1.5519,1.8761,4.8526,49.27366317,-122.9803661,0.73000002
8.654993,-0.4866,1.2125,-0.4855,-0.8094,-3.4115,0.4588,-1.5519,1.8761,4.8526,49.27366317,-122.9803661,0.73000002
8.659472,-0.3148,1.2147,-0.3345,-0.8094,-3.4115,0.4588,-1.5519,1.8761,4.8526,49.27366317,-122.9803661,0.73000002
8.677846,-0.3148,1.2147,-0.3345,-0.8094,-3.4115,0.4588,-1.5519,1.8761,4.8526,49.27366317,-122.9803661,0.73000002
8.682182,-0.2903,1.1899,-0.3519,-0.8094,-3.4115,0.4588,-1.5519,1.8761,4.8526,49.27366317,-122.9803661,0.73000002
8.707697,-0.2903,1.1899,-0.3519,-5.6717,1.6118,-2.8816,-1.5519,1.8761,4.8526,49.27366317,-122.9803661,0.73000002
8.713438,-0.3879,1.2361,-0.4089,-5.6717,1.6118,-2.8816,-1.5519,1.8761,4.8526,49.27366317,-122.9803661,0.73000002
8.718292,-0.3879,1.2361,-0.4089,-5.6717,1.6118,-2.8816,-1.4666,1.417,4.968,49.27366317,-122.9803661,0.73000002
8.721433,-0.5859,1.2416,-0.4936,-5.6717,1.6118,-2.8816,-1.4666,1.417,4.968,49.27366317,-122.9803661,0.73000002
8.737416,-0.5859,1.2416,-0.4936,-5.6717,1.6118,-2.8816,-1.4666,1.417,4.968,49.27366317,-122.9803661,0.73000002
8.742399,-0.6536,1.2138,-0.4177,-5.6717,1.6118,-2.8816,-1.4666,1.417,4.968,49.27366317,-122.9803661,0.73000002
8.762817,-0.3829,1.0625,-0.1735,-5.6717,1.6118,-2.8816,-1.4666,1.417,4.968,49.27366317,-122.9803661,0.73000002
8.767583,-0.3829,1.0625,-0.1735,-5.6717,1.6118,-2.8816,-1.4666,1.417,4.968,49.27366317,-122.9803661,0.73000002
8.775825,-0.1282,1.1007,0.0074,-5.6717,1.6118,-2.8816,-1.4666,1.417,4.968,49.27366317,-122.9803661,0.73000002
8.7811,-0.1282,1.1007,0.0074,-5.6717,1.6118,-2.8816,-0.7391,-0.3496,3.5628,49.27366317,-122.9803661,0.73000002
8.785227,-0.1282,1.1007,0.0074,-7.525,3.7132,-3.2859,-0.7391,-0.3496,3.5628,49.27366317,-122.9803661,0.73000002
8.800221,-0.132,1.1404,0.0566,-7.525,3.7132,-3.2859,-0.7391,-0.3496,3.5628,49.27366317,-122.9803661,0.73000002
8.803706,-0.132,1.1404,0.0566,-7.525,3.7132,-3.2859,-0.7391,-0.3496,3.5628,49.27366317,-122.9803661,0.73000002
8.815198,-0.2742,0.9978,0.1148,-7.525,3.7132,-3.2859,-0.7391,-0.3496,3.5628,49.27366317,-122.9803661,0.73000002
8.832504,-0.4346,0.9467,0.0128,-7.525,3.7132,-3.2859,-0.7391,-0.3496,3.5628,49.27366317,-122.9803661,0.73000002
8.837764,-0.4346,0.9467,0.0128,-7.525,3.7132,-3.2859,-0.7391,-0.3496,3.5628,49.27366317,-122.9803661,0.73000002
8.840872,-0.4346,0.9467,0.0128,-6.8558,2.8135,-0.9838,-0.7391,-0.3496,3.5628,49.27366317,-122.9803661,0.73000002
8.843629,-0.4346,0.9467,0.0128,-6.8558,2.8135,-0.9838,0.2807,0.9807,-0.0347,49.27366317,-122.9803661,0.73000002
8.845987,-0.4507,1.0839,-0.1624,-6.8558,2.8135,-0.9838,0.2807,0.9807,-0.0347,49.27366317,-122.9803661,0.73000002
8.877354,-0.2448,1.4299,-0.0208,-6.8558,2.8135,-0.9838,0.2807,0.9807,-0.0347,49.27366317,-122.9803661,0.73000002
8.881441,-0.2448,1.4299,-0.0208,-6.8558,2.8135,-0.9838,0.2807,0.9807,-0.0347,49.27366317,-122.9803661,0.73000002
8.909133,-0.2448,1.4299,-0.0208,-6.8558,2.8135,-0.9838,0.5915,1.6673,-1.3831,49.27366317,-122.9803661,0.73000002
8.913295,1.0783,1.494,0.9499,-6.8558,2.8135,-0.9838,0.5915,1.6673,-1.3831,49.27366317,-122.9803661,0.73000002
8.916084,0.4912,1.0879,-0.272,-6.8558,2.8135,-0.9838,0.5915,1.6673,-1.3831,49.27366317,-122.9803661,0.73000002
8.918875,0.4912,1.0879,-0.272,-6.1039,1.5002,0.5475,0.5915,1.6673,-1.3831,49.27366317,-122.9803661,0.73000002
8.923616,-0.2118,1.4729,-0.6558,-6.1039,1.5002,0.5475,0.5915,1.6673,-1.3831,49.27366317,-122.9803661,0.73000002
8.939081,-0.2118,1.4729,-0.6558,-6.1039,1.5002,0.5475,0.5915,1.6673,-1.3831,49.27366317,-122.9803661,0.73000002
8.962388,-0.6829,0.9897,-0.4816,-6.1039,1.5002,0.5475,0.5915,1.6673,-1.3831,49.27366317,-122.9803661,0.73000002
8.968763,-0.7193,0.5774,-0.6114,-6.1039,1.5002,0.5475,0.5915,1.6673,-1.3831,49.27366317,-122.9803661,0.73000002
8.973387,-0.7193,0.5774,-0.6114,-6.1039,1.5002,0.5475,0.5915,1.6673,-1.3831,49.27366317,-122.9803661,0.73000002
8.978443,-0.7193,0.5774,-0.6114,-6.1039,1.5002,0.5475,1.0891,0.3978,-1.5952,49.27366317,-122.9803661,0.73000002
8.982874,0.0263,0.9693,-0.4245,-6.1039,1.5002,0.5475,1.0891,0.3978,-1.5952,49.27366317,-122.9803661,0.73000002
8.986769,0.0263,0.9693,-0.4245,1.6185,4.2915,1.854,1.0891,0.3978,-1.5952,49.27366317,-122.9803661,0.73000002
8.997658,0.0263,0.9693,-0.4245,1.6185,4.2915,1.854,1.0891,0.3978,-1.5952,49.27366317,-122.9803661,0.73000002
9.00259,0.0608,1.0558,-0.165,1.6185,4.2915,1.854,1.0891,0.3978,-1.5952,49.27366317,-122.9803661,0.73000002
9.028827,0.0608,1.0558,-0.165,1.6185,4.2915,1.854,1.0891,0.3978,-1.5952,49.27366317,-122.9803661,0.73000002
9.033913,0.066,0.9622,0.0507,1.6185,4.2915,1.854,1.0891,0.3978,-1.5952,49.27366317,-122.9803661,0.73000002
9.048567,0.066,0.9622,0.0507,1.6185,4.2915,1.854,0.7391,-1.1044,-1.1759,49.27366317,-122.9803661,0.73000002
9.05363,0.066,0.9622,0.0507,-4.9366,0.5174,-3.3148,0.7391,-1.1044,-1.1759,49.27366317,-122.9803661,0.73000002
9.058092,0.1606,0.9523,0.0434,-4.9366,0.5174,-3.3148,0.7391,-1.1044,-1.1759,49.27366317,-122.9803661,0.73000002
9.061405,0.155,0.9624,-0.2521,-4.9366,0.5174,-3.3148,0.7391,-1.1044,-1.1759,49.27366317,-122.9803661,0.73000002
9.077697,0.155,0.9624,-0.2521,-4.9366,0.5174,-3.3148,0.7391,-1.1044,-1.1759,49.27366317,-122.9803661,0.73000002
9.082284,-0.1954,0.8832,-0.5031,-4.9366,0.5174,-3.3148,0.7391,-1.1044,-1.1759,49.27366317,-122.9803661,0.73000002
9.102893,-0.4653,0.8949,-0.5355,-4.9366,0.5174,-3.3148,0.7391,-1.1044,-1.1759,49.27366317,-122.9803661,0.73000002
9.114615,-0.4653,0.8949,-0.5355,-4.9366,0.5174,-3.3148,0.4497,-0.1293,-0.8187,49.27366317,-122.9803661,0.73000002
9.119286,-0.3182,0.96,-0.3188,-4.9366,0.5174,-3.3148,0.4497,-0.1293,-0.8187,49.27366317,-122.9803661,0.73000002
9.121567,-0.3182,0.96,-0.3188,0.7304,0.8537,1.5055,0.4497,-0.1293,-0.8187,49.27366317,-122.9803661,0.73000002
9.136546,-0.3182,0.96,-0.3188,0.7304,0.8537,1.5055,0.4497,-0.1293,-0.8187,49.27366317,-122.9803661,0.73000002
9.139809,-0.0839,0.982,-0.1994,0.7304,0.8537,1.5055,0.4497,-0.1293,-0.8187,49.27366317,-122.9803661,0.73000002
9.162324,0.1516,0.9516,-0.2259,0.7304,0.8537,1.5055,0.4497,-0.1293,-0.8187,49.27366317,-122.9803661,0.73000002
9.167209,0.1516,0.9516,-0.2259,0.7304,0.8537,1.5055,0.4497,-0.1293,-0.8187,49.27366317,-122.9803661,0.73000002
9.183601,0.1516,0.9516,-0.2259,-2.5531,0.1624,-2.1699,0.4497,-0.1293,-0.8187,49.27366317,-122.9803661,0.73000002
9.190775,0.1516,0.9516,-0.2259,-2.5531,0.1624,-2.1699,0.1972,-0.7793,-0.3883,49.27366317,-122.9803661,0.73000002
9.194687,0.339,0.8959,-0.2213,-2.5531,0.1624,-2.1699,0.1972,-0.7793,-0.3883,49.27366317,-122.9803661,0.73000002
9.198669,0.4506,0.9148,-0.1347,-2.5531,0.1624,-2.1699,0.1972,-0.7793,-0.3883,49.27366317,-122.9803661,0.73000002
9.201978,0.4506,0.9148,-0.1347,-2.5531,0.1624,-2.1699,0.1972,-0.7793,-0.3883,49.27366317,-122.9803661,0.73000002
9.23035,0.3569,0.9678,-0.1109,-2.5531,0.1624,-2.1699,0.1972,-0.7793,-0.3883,49.27366317,-122.9803661,0.73000002
9.235231,0.3569,0.9678,-0.1109,-2.5531,0.1624,-2.1699,0.1972,-0.7793,-0.3883,49.27366317,-122.9803661,0.73000002
9.249821,0.3569,0.9678,-0.1109,2.5394,0.4416,0.2643,0.1972,-0.7793,-0.3883,49.27366317,-122.9803661,0.73000002
9.254884,0.1376,0.9643,-0.2229,2.5394,0.4416,0.2643,0.1972,-0.7793,-0.3883,49.27366317,-122.9803661,0.73000002
9.258906,0.1376,0.9643,-0.2229,2.5394,0.4416,0.2643,0.3445,-0.5311,-1.1957,49.27366317,-122.9803661,0.73000002
9.261691,-0.1024,0.9191,-0.3355,2.5394,0.4416,0.2643,0.3445,-0.5311,-1.1957,49.27366317,-122.9803661,0.73000002
9.277728,-0.1024,0.9191,-0.3355,2.5394,0.4416,0.2643,0.3445,-0.5311,-1.1957,49.27366317,-122.9803661,0.73000002
9.282076,-0.3044,0.9394,-0.2989,2.5394,0.4416,0.2643,0.3445,-0.5311,-1.1957,49.27366317,-122.9803661,0.73000002
9.316143,-0.3044,0.9394,-0.2989,2.5394,0.4416,0.2643,0.288,-0.8208,-1.2472,49.27366317,-122.9803661,0.73000002
9.322077,-0.3044,0.9394,-0.2989,3.3203,0.676,0.3468,0.288,-0.8208,-1.2472,49.27366317,-122.9803661,0.73000002
9.325689,-0.2888,0.9414,-0.3028,3.3203,0.676,0.3468,0.288,-0.8208,-1.2472,49.27366317,-122.9803661,0.73000002
9.329712,-0.1654,0.9557,-0.2931,3.3203,0.676,0.3468,0.288,-0.8208,-1.2472,49.27366317,-122.9803661,0.73000002
9.337915,-0.1055,0.9765,-0.2711,3.3203,0.676,0.3468,0.288,-0.8208,-1.2472,49.27366317,-122.9803661,0.73000002
9.342114,-0.1055,0.9765,-0.2711,3.3203,0.676,0.3468,0.288,-0.8208,-1.2472,49.27366317,-122.9803661,0.73000002
9.362111,-0.0807,1.028,-0.278,3.3203,0.676,0.3468,0.288,-0.8208,-1.2472,49.27366317,-122.9803661,0.73000002
9.366994,-0.0807,1.028,-0.278,3.3203,0.676,0.3468,0.288,-0.8208,-1.2472,49.27366317,-122.9803661,0.73000002
9.38387,-0.1074,1.0743,-0.2751,3.3203,0.676,0.3468,0.288,-0.8208,-1.2472,49.27366317,-122.9803661,0.73000002
9.389263,-0.1342,1.1036,-0.2769,3.3203,0.676,0.3468,0.288,-0.8208,-1.2472,49.27366317,-122.9803661,0.73000002
9.393242,-0.1342,1.1036,-0.2769,0.1223,0.8948,-0.5183,0.288,-0.8208,-1.2472,49.27366317,-122.9803661,0.73000002
9.396716,-0.1342,1.1036,-0.2769,0.1223,0.8948,-0.5183,0.1591,-0.6838,-1.2547,49.27366317,-122.9803661,0.73000002
9.399648,-0.1342,1.1036,-0.2769,0.1223,0.8948,-0.5183,0.1591,-0.6838,-1.2547,49.27366317,-122.9803661,0.73000002
9.429763,-0.1141,1.1033,-0.2519,0.1223,0.8948,-0.5183,0.1591,-0.6838,-1.2547,49.27366317,-122.9803661,0.73000002
9.435657,-0.0464,1.1337,-0.2323,0.1223,0.8948,-0.5183,0.1591,-0.6838,-1.2547,49.27366317,-122.9803661,0.73000002
9.440251,-0.0464,1.1337,-0.2323,0.1223,0.8948,-0.5183,0.1591,-0.6838,-1.2547,49.27366317,-122.9803661,0.73000002
9.451783,-0.0464,1.1337,-0.2323,0.1223,0.8948,-0.5183,0.168,-0.6948,-1.592,49.27366317,-122.9803661,0.73000002
9.458294,0.0095,1.1607,-0.2196,0.1223,0.8948,-0.5183,0.168,-0.6948,-1.592,49.27366317,-122.9803661,0.73000002
9.462758,0.0095,1.1607,-0.2196,2.3507,2.2114,-0.3226,0.168,-0.6948,-1.592,49.27366317,-122.9803661,0.73000002
9.478478,0.0095,1.1607,-0.2196,2.3507,2.2114,-0.3226,0.168,-0.6948,-1.592,49.27366317,-122.9803661,0.73000002
9.482826,0.044,1.1598,-0.1915,2.3507,2.2114,-0.3226,0.168,-0.6948,-1.592,49.27366317,-122.9803661,0.73000002
9.519293,0.044,1.1598,-0.1915,2.3507,2.2114,-0.3226,0.396,-1.2622,-2.22,49.27366317,-122.9803661,0.73000002
9.524749,0.1208,1.1816,-0.1403,2.3507,2.2114,-0.3226,0.396,-1.2622,-2.22,49.27366317,-122.9803661,0.73000002
9.528461,0.152,1.3255,-0.1849,2.3507,2.2114,-0.3226,0.396,-1.2622,-2.22,49.27366317,-122.9803661,0.73000002
9.531766,0.152,1.3255,-0.1849,4.296,3.6346,-0.0449,0.396,-1.2622,-2.22,49.27366317,-122.9803661,0.73000002
9.53494,0.3734,1.4099,-0.1381,4.296,3.6346,-0.0449,0.396,-1.2622,-2.22,49.27366317,-122.9803661,0.73000002
9.538287,0.3734,1.4099,-0.1381,4.296,3.6346,-0.0449,0.396,-1.2622,-2.22,49.27366317,-122.9803661,0.73000002
9.56803,0.5563,1.2737,-0.1244,4.296,3.6346,-0.0449,0.396,-1.2622,-2.22,49.27366317,-122.9803661,0.73000002
9.573408,0.133,1.4045,-0.3185,4.296,3.6346,-0.0449,0.396,-1.2622,-2.22,49.27366317,-122.9803661,0.73000002
9.577903,0.133,1.4045,-0.3185,4.296,3.6346,-0.0449,0.396,-1.2622,-2.22,49.27366317,-122.9803661,0.73000002
9.581121,-0.5112,1.4137,-0.7004,4.296,3.6346,-0.0449,0.396,-1.2622,-2.22,49.27366317,-122.9803661,0.73000002
9.590146,-0.5112,1.4137,-0.7004,4.296,3.6346,-0.0449,0.9859,-0.7741,-3.1715,49.27366317,-122.9803661,0.73000002
9.595074,-0.5112,1.4137,-0.7004,8.023,6.3026,0.8319,0.9859,-0.7741,-3.1715,49.27366317,-122.9803661,0.73000002
9.599157,-0.5112,1.4137,-0.7004,8.023,6.3026,0.8319,0.9859,-0.7741,-3.1715,49.27366317,-122.9803661,0.73000002
9.601948,-0.9223,1.0336,-0.714,8.023,6.3026,0.8319,0.9859,-0.7741,-3.1715,49.27366317,-122.9803661,0.73000002
9.655559,-0.9223,1.0336,-0.714,8.023,6.3026,0.8319,0.6689,-1.0194,-1.1611,49.27366317,-122.9803661,0.73000002
9.662815,-0.9719,0.5146,-0.7364,8.023,6.3026,0.8319,0.6689,-1.0194,-1.1611,49.27366317,-122.9803661,0.73000002
9.667906,-0.8231,0.2241,-0.371,8.023,6.3026,0.8319,0.6689,-1.0194,-1.1611,49.27366317,-122.9803661,0.73000002
9.673213,-0.8231,0.2241,-0.371,6.0495,7.3338,-2.0007,0.6689,-1.0194,-1.1611,49.27366317,-122.9803661,0.73000002
9.678856,-0.2625,0.0646,-0.2204,6.0495,7.3338,-2.0007,0.6689,-1.0194,-1.1611,49.27366317,-122.9803661,0.73000002
9.682917,0.1366,0.0311,0.1002,6.0495,7.3338,-2.0007,0.6689,-1.0194,-1.1611,49.27366317,-122.9803661,0.73000002
9.686063,0.1366,0.0311,0.1002,6.0495,7.3338,-2.0007,0.6689,-1.0194,-1.1611,49.27366317,-122.9803661,0.73000002
9.695383,0.1366,0.0311,0.1002,6.0495,7.3338,-2.0007,0.6689,-1.0194,-1.1611,49.27366317,-122.9803661,0.73000002
9.69953,0.2027,0.1212,0.1755,6.0495,7.3338,-2.0007,0.6689,-1.0194,-1.1611,49.27366317,-122.9803661,0.73000002
9.722015,0.2027,0.1212,0.1755,6.0495,7.3338,-2.0007,0.2433,-1.1417,2.1833,49.27366317,-122.9803661,0.73000002
9.726957,0.0741,0.3763,0.1078,6.0495,7.3338,-2.0007,0.2433,-1.1417,2.1833,49.27366317,-122.9803661,0.73000002
9.730826,0.0741,0.3763,0.1078,-1.3138,-3.1688,-2.8116,0.2433,-1.1417,2.1833,49.27366317,-122.9803661,0.73000002
9.743438,0.0741,0.3763,0.1078,-1.3138,-3.1688,-2.8116,0.2433,-1.1417,2.1833,49.27366317,-122.9803661,0.73000002
9.746826,-0.014,0.5473,0.0641,-1.3138,-3.1688,-2.8116,0.2433,-1.1417,2.1833,49.27366317,-122.9803661,0.73000002
9.762054,-0.014,0.5473,0.0641,-1.3138,-3.1688,-2.8116,0.2433,-1.1417,2.1833,49.27366317,-122.9803661,0.73000002
9.765841,-0.113,0.5749,0.0076,-1.3138,-3.1688,-2.8116,0.2433,-1.1417,2.1833,49.27366317,-122.9803661,0.73000002
9.790828,-0.2356,0.6786,-0.1066,-1.3138,-3.1688,-2.8116,0.2433,-1.1417,2.1833,49.27366317,-122.9803661,0.73000002
9.795038,-0.3862,0.8003,-0.189,-1.3138,-3.1688,-2.8116,0.2433,-1.1417,2.1833,49.27366317,-122.9803661,0.73000002
9.798215,-0.3862,0.8003,-0.189,-1.3138,-3.1688,-2.8116,-0.2781,2.0305,4.095,49.27366317,-122.9803661,0.73000002
9.80119,-0.3862,0.8003,-0.189,4.6644,-5.698,3.4865,-0.2781,2.0305,4.095,49.27366317,-122.9803661,0.73000002
9.803669,-0.3862,0.8003,-0.189,4.6644,-5.698,3.4865,-0.2781,2.0305,4.095,49.27366317,-122.9803661,0.73000002
9.815012,-0.5411,0.9246,-0.318,4.6644,-5.698,3.4865,-0.2781,2.0305,4.095,49.27366317,-122.9803661,0.73000002
9.859687,-0.5411,0.9246,-0.318,-1.8154,-2.1987,1.0286,-0.2781,2.0305,4.095,49.27366317,-122.9803661,0.73000002
9.865217,-0.4941,1.1633,-0.515,-1.8154,-2.1987,1.0286,-0.2781,2.0305,4.095,49.27366317,-122.9803661,0.73000002
9.869335,-0.3853,1.383,-0.4025,-1.8154,-2.1987,1.0286,-0.2781,2.0305,4.095,49.27366317,-122.9803661,0.73000002
9.873674,-0.3853,1.383,-0.4025,-1.8154,-2.1987,1.0286,-1.3378,1.7316,5.2287,49.27366317,-122.9803661,0.73000002
9.87829,-0.3625,1.3099,-0.3468,-1.8154,-2.1987,1.0286,-1.3378,1.7316,5.2287,49.27366317,-122.9803661,0.73000002
9.881622,-0.3625,1.3099,-0.3468,-1.8154,-2.1987,1.0286,-1.3378,1.7316,5.2287,49.27366317,-122.9803661,0.73000002
9.896659,-0.3266,1.2787,-0.2924,-1.8154,-2.1987,1.0286,-1.3378,1.7316,5.2287,49.27366317,-122.9803661,0.73000002
9.900496,-0.3266,1.2787,-0.2924,-1.8154,-2.1987,1.0286,-1.3378,1.7316,5.2287,49.27366317,-122.9803661,0.73000002
9.925799,-0.3266,1.2787,-0.2924,-1.8154,-2.1987,1.0286,-1.432,1.0106,4.8025,49.27366317,-122.9803661,0.73000002
9.931006,-0.3558,1.2303,-0.2937,-1.8154,-2.1987,1.0286,-1.432,1.0106,4.8025,49.27366317,-122.9803661,0.73000002
9.934509,-0.386,1.1638,-0.2309,-1.8154,-2.1987,1.0286,-1.432,1.0106,4.8025,49.27366317,-122.9803661,0.73000002
9.938058,-0.386,1.1638,-0.2309,-7.0315,3.0607,-3.0776,-1.432,1.0106,4.8025,49.27366317,-122.9803661,0.73000002
9.94111,-0.386,1.1638,-0.2309,-7.0315,3.0607,-3.0776,-1.432,1.0106,4.8025,49.27366317,-122.9803661,0.73000002
9.964474,-0.3688,1.3049,-0.1137,-7.0315,3.0607,-3.0776,-1.432,1.0106,4.8025,49.27366317,-122.9803661,0.73000002
9.969998,-0.3688,1.3049,-0.1137,-7.0315,3.0607,-3.0776,-1.432,1.0106,4.8025,49.27366317,-122.9803661,0.73000002
9.990706,-0.3359,1.2246,-0.0149,-7.0315,3.0607,-3.0776,-1.432,1.0106,4.8025,49.27366317,-122.9803661,0.73000002
9.996116,-0.2957,1.0313,0.0081,-7.0315,3.0607,-3.0776,-1.432,1.0106,4.8025,49.27366317,-122.9803661,0.73000002
9.999784,-0.2957,1.0313,0.0081,-7.0315,3.0607,-3.0776,-0.4807,0.8492,2.4669,49.27366317,-122.9803661,0.73000002
10.003104,-0.2957,1.0313,0.0081,-7.2751,3.991,-2.271,-0.4807,0.8492,2.4669,49.27366317,-122.9803661,0.73000002
10.006189,-0.2957,1.0313,0.0081,-7.2751,3.991,-2.271,-0.4807,0.8492,2.4669,49.27366317,-122.9803661,0.73000002
10.060526,-0.2958,0.9934,-0.006,-7.2751,3.991,-2.271,-0.4807,0.8492,2.4669,49.27366317,-122.9803661,0.73000002
10.067599,-0.3607,0.9712,-0.1712,-7.2751,3.991,-2.271,-0.4807,0.8492,2.4669,49.27366317,-122.9803661,0.73000002
10.072563,-0.4811,0.9342,-0.2979,-7.2751,3.991,-2.271,-0.4807,0.8492,2.4669,49.27366317,-122.9803661,0.73000002
10.078038,-0.3504,1.311,-0.1405,-7.2751,3.991,-2.271,-0.4807,0.8492,2.4669,49.27366317,-122.9803661,0.73000002
10.083503,-0.3504,1.311,-0.1405,-6.4113,3.0115,0.1023,-0.4807,0.8492,2.4669,49.27366317,-122.9803661,0.73000002
10.087759,-0.3504,1.311,-0.1405,-6.4113,3.0115,0.1023,0.5351,1.4214,-0.9505,49.27366317,-122.9803661,0.73000002
10.090747,-0.3504,1.311,-0.1405,-6.4113,3.0115,0.1023,0.5351,1.4214,-0.9505,49.27366317,-122.9803661,0.73000002
10.101933,-0.3504,1.311,-0.1405,-6.4113,3.0115,0.1023,0.5351,1.4214,-0.9505,49.27366317,-122.9803661,0.73000002
10.104663,0.7165,1.5672,1.1096,-6.4113,3.0115,0.1023,0.5351,1.4214,-0.9505,49.27366317,-122.9803661,0.73000002
10.107714,0.7546,1.0574,0.0485,-6.4113,3.0115,0.1023,0.5351,1.4214,-0.9505,49.27366317,-122.9803661,0.73000002
10.124273,-0.2459,1.3543,-0.6746,-6.4113,3.0115,0.1023,0.5351,1.4214,-0.9505,49.27366317,-122.9803661,0.73000002
10.127962,-0.2459,1.3543,-0.6746,-6.4113,3.0115,0.1023,0.7857,2.3148,-1.1835,49.27366317,-122.9803661,0.73000002
10.132434,-0.2459,1.3543,-0.6746,-6.2623,1.8012,-1.3244,0.7857,2.3148,-1.1835,49.27366317,-122.9803661,0.73000002
10.139387,-0.2459,1.3543,-0.6746,-6.2623,1.8012,-1.3244,0.7857,2.3148,-1.1835,49.27366317,-122.9803661,0.73000002
10.162335,-0.2459,1.3543,-0.6746,-6.2623,1.8012,-1.3244,0.7857,2.3148,-1.1835,49.27366317,-122.9803661,0.73000002
10.164216,-0.5604,1.3141,-0.5475,-6.2623,1.8012,-1.3244,0.7857,2.3148,-1.1835,49.27366317,-122.9803661,0.73000002
10.165825,-0.9422,0.6941,-0.7361,-6.2623,1.8012,-1.3244,0.7857,2.3148,-1.1835,49.27366317,-122.9803661,0.73000002
10.190932,-0.0469,0.953,-0.4901,-6.2623,1.8012,-1.3244,0.7857,2.3148,-1.1835,49.27366317,-122.9803661,0.73000002
10.197073,-0.0469,0.953,-0.4901,-6.2623,1.8012,-1.3244,0.946,-0.9267,-1.0867,49.27366317,-122.9803661,0.73000002
10.199522,0.6015,1.0218,-0.0798,-6.2623,1.8012,-1.3244,0.946,-0.9267,-1.0867,49.27366317,-122.9803661,0.73000002
10.201468,0.6015,1.0218,-0.0798,-6.2623,1.8012,-1.3244,0.946,-0.9267,-1.0867,49.27366317,-122.9803661,0.73000002
10.203345,0.6015,1.0218,-0.0798,1.1063,4.5474,1.689,0.946,-0.9267,-1.0867,49.27366317,-122.9803661,0.73000002
10.259159,0.481,0.9618,0.1376,1.1063,4.5474,1.689,0.946,-0.9267,-1.0867,49.27366317,-122.9803661,0.73000002
10.265559,-0.0568,0.948,-0.0825,1.1063,4.5474,1.689,0.946,-0.9267,-1.0867,49.27365434,-122.9803701,1.10000002
10.270406,-0.1458,0.9714,-0.3696,1.1063,4.5474,1.689,0.946,-0.9267,-1.0867,49.27365434,-122.9803701,1.10000002
10.274661,-0.1458,0.9714,-0.3696,1.1063,4.5474,1.689,0.6405,-0.0134,-1.0558,49.27365434,-122.9803701,1.10000002
10.278942,-0.1458,0.9714,-0.3696,-3.2773,0.1263,-2.9331,0.6405,-0.0134,-1.0558,49.27365434,-122.9803701,1.10000002
10.28196,-0.1458,0.9714,-0.3696,-3.2773,0.1263,-2.9331,0.6405,-0.0134,-1.0558,49.27365434,-122.9803701,1.10000002
10.285391,0.1861,0.8915,-0.4282,-3.2773,0.1263,-2.9331,0.6405,-0.0134,-1.0558,49.27365434,-122.9803701,1.10000002
10.295487,0.4214,0.8717,-0.2066,-3.2773,0.1263,-2.9331,0.6405,-0.0134,-1.0558,49.27365434,-122.9803701,1.10000002
10.299831,0.4214,0.8717,-0.2066,-3.2773,0.1263,-2.9331,0.6405,-0.0134,-1.0558,49.27365434,-122.9803701,1.10000002
10.319529,0.2951,0.9185,-0.0754,-3.2773,0.1263,-2.9331,0.6405,-0.0134,-1.0558,49.27365434,-122.9803701,1.10000002
10.330749,0.2951,0.9185,-0.0754,-3.2773,0.1263,-2.9331,0.5012,-0.8798,-1.2278,49.27365434,-122.9803701,1.10000002
10.334551,0.0969,0.9609,-0.0462,-3.2773,0.1263,-2.9331,0.5012,-0.8798,-1.2278,49.27365434,-122.9803701,1.10000002
10.337527,0.0969,0.9609,-0.0462,0.6096,0.5045,0.3225,0.5012,-0.8798,-1.2278,49.27365434,-122.9803701,1.10000002
10.340241,0.0969,0.9609,-0.0462,0.6096,0.5045,0.3225,0.5012,-0.8798,-1.2278,49.27365434,-122.9803701,1.10000002
10.362551,0.0834,0.9061,-0.1277,0.6096,0.5045,0.3225,0.5012,-0.8798,-1.2278,49.27365434,-122.9803701,1.10000002
10.36797,0.0834,0.9061,-0.1277,0.6096,0.5045,0.3225,0.5012,-0.8798,-1.2278,49.27365434,-122.9803701,1.10000002
10.391599,0.0611,0.9116,-0.2439,0.6096,0.5045,0.3225,0.5012,-0.8798,-1.2278,49.27365434,-122.9803701,1.10000002
10.399015,-0.0497,0.9331,-0.2974,0.6096,0.5045,0.3225,0.5012,-0.8798,-1.2278,49.27365434,-122.9803701,1.10000002
10.40387,-0.0497,0.9331,-0.2974,0.6096,0.5045,0.3225,0.5012,-0.8798,-1.2278,49.27365434,-122.9803701,1.10000002
10.408563,-0.0497,0.9331,-0.2974,0.6096,0.5045,0.3225,0.4896,-0.2695,-1.4642,49.27365434,-122.9803701,1.10000002
10.413357,-0.0497,0.9331,-0.2974,3.2156,0.1455,0.6568,0.4896,-0.2695,-1.4642,49.27365434,-122.9803701,1.10000002
10.460178,-0.1727,0.8939,-0.2223,3.2156,0.1455,0.6568,0.4896,-0.2695,-1.4642,49.27365434,-122.9803701,1.10000002
10.467899,-0.1975,0.8937,-0.2308,3.2156,0.1455,0.6568,0.4896,-0.2695,-1.4642,49.27365434,-122.9803701,1.10000002
10.473232,-0.1601,0.9389,-0.287,3.2156,0.1455,0.6568,0.4896,-0.2695,-1.4642,49.27365434,-122.9803701,1.10000002
10.478101,-0.1601,0.9389,-0.287,1.4623,0.3476,0.1745,0.4896,-0.2695,-1.4642,49.27365434,-122.9803701,1.10000002
10.481611,-0.1601,0.9389,-0.287,1.4623,0.3476,0.1745,0.4251,-0.3833,-1.4059,49.27365434,-122.9803701,1.10000002
10.484806,-0.1756,0.9596,-0.3686,1.4623,0.3476,0.1745,0.4251,-0.3833,-1.4059,49.27365434,-122.9803701,1.10000002
10.488696,-0.1756,0.9596,-0.3686,1.4623,0.3476,0.1745,0.4251,-0.3833,-1.4059,49.27365434,-122.9803701,1.10000002
10.497405,-0.1756,0.9596,-0.3686,1.4623,0.3476,0.1745,0.4251,-0.3833,-1.4059,49.27365434,-122.9803701,1.10000002
10.500626,-0.2165,0.9466,-0.3647,1.4623,0.3476,0.1745,0.4251,-0.3833,-1.4059,49.27365434,-122.9803701,1.10000002
10.525216,-0.1756,0.9912,-0.3094,1.4623,0.3476,0.1745,0.4251,-0.3833,-1.4059,49.27365434,-122.9803701,1.10000002
10.535931,-0.1979,1.076,-0.2931,1.4623,0.3476,0.1745,0.4251,-0.3833,-1.4059,49.27365434,-122.9803701,1.10000002
10.541135,-0.1979,1.076,-0.2931,0.5528,0.6578,-0.3613,0.4251,-0.3833,-1.4059,49.27365434,-122.9803701,1.10000002
10.543341,-0.1979,1.076,-0.2931,0.5528,0.6578,-0.3613,0.3286,-0.8253,-1.3477,49.27365434,-122.9803701,1.10000002
10.545196,-0.1979,1.076,-0.2931,0.5528,0.6578,-0.3613,0.3286,-0.8253,-1.3477,49.27365434,-122.9803701,1.10000002
10.565596,-0.1603,1.0992,-0.2388,0.5528,0.6578,-0.3613,0.3286,-0.8253,-1.3477,49.27365434,-122.9803701,1.10000002
10.578627,0.0509,1.1762,-0.2,0.5528,0.6578,-0.3613,0.3286,-0.8253,-1.3477,49.27365434,-122.9803701,1.10000002
10.591174,-0.083,1.1214,-0.2303,0.5528,0.6578,-0.3613,0.3286,-0.8253,-1.3477,49.27365434,-122.9803701,1.10000002
10.597692,-0.083,1.1214,-0.2303,0.5528,0.6578,-0.3613,0.3286,-0.8253,-1.3477,49.27365434,-122.9803701,1.10000002
10.605198,-0.083,1.1214,-0.2303,1.3592,1.9044,-0.5814,0.3286,-0.8253,-1.3477,49.27365434,-122.9803701,1.10000002
10.6099,-0.083,1.1214,-0.2303,1.3592,1.9044,-0.5814,0.3221,-0.7263,-1.6198,49.27365434,-122.9803701,1.10000002
10.613122,-0.0861,1.1533,-0.2435,1.3592,1.9044,-0.5814,0.3221,-0.7263,-1.6198,49.27365434,-122.9803701,1.10000002
10.628091,0.0255,1.2221,-0.2142,1.3592,1.9044,-0.5814,0.3221,-0.7263,-1.6198,49.27365434,-122.9803701,1.10000002
10.6316,0.0255,1.2221,-0.2142,1.3592,1.9044,-0.5814,0.3221,-0.7263,-1.6198,49.27365434,-122.9803701,1.10000002
10.658939,0.0695,1.3266,-0.2438,1.3592,1.9044,-0.5814,0.3221,-0.7263,-1.6198,49.27365434,-122.9803701,1.10000002
10.671544,0.0695,1.3266,-0.2438,1.3592,1.9044,-0.5814,0.5566,-1.406,-2.1794,49.27365434,-122.9803701,1.10000002
10.677464,0.2119,1.5164,-0.2694,1.3592,1.9044,-0.5814,0.5566,-1.406,-2.1794,49.27365434,-122.9803701,1.10000002
10.681172,0.2119,1.5164,-0.2694,4.1458,3.7535,0.2047,0.5566,-1.406,-2.1794,49.27365434,-122.9803701,1.10000002
10.684254,0.2119,1.5164,-0.2694,4.1458,3.7535,0.2047,0.5566,-1.406,-2.1794,49.27365434,-122.9803701,1.10000002
10.698288,0.2119,1.5164,-0.2694,4.1458,3.7535,0.2047,0.5566,-1.406,-2.1794,49.27365434,-122.9803701,1.10000002
